trials.thisRepN,trials.thisTrialN,trials.thisN,trials.thisIndex,thisRow.t,notes,trial.started,num_distr,mouse.time,fixation.started,target.started,mouse.started,trial.stopped,mouse.x,mouse.y,mouse.leftButton,mouse.midButton,mouse.rightButton,,mouse.clicked_name,participant,session,date,expName,psychopyVersion,frameRate,expStart
0,0,0,0,0.0577644,,0.0109709,5,1.1948326,0.0577644,0.0577644,0.0422962,7.0956209,[0.4625],[0.46805555555555556],[1],[0],[0],,['target'],P2,1,2024-10-06_14h54.12.638,untitled,2024.1.5,None,2024-10-06 14h54.24.235627 +0530
1,0,1,0,7.1577514,,7.1008312,5,1.343326,7.1577514,7.1577514,0.0321501,8.5779446,[-0.11944444444444445],[0.2708333333333333],[1],[0],[0],,['target'],P2,1,2024-10-06_14h54.12.638,untitled,2024.1.5,None,2024-10-06 14h54.24.235627 +0530
2,0,2,0,8.6246634,,8.5820477,5,1.5534571,8.6246634,8.6246634,0.0184148,9.7949601,[0.1],[0.2777777777777778],[1],[0],[0],,['target'],P2,1,2024-10-06_14h54.12.638,untitled,2024.1.5,None,2024-10-06 14h54.24.235627 +0530
3,0,3,0,9.8577835,,9.7998508,5,1.897954,9.8577835,9.8577835,0.0336209,12.3440969,[0.4597222222222222],[0.005555555555555556],[1],[0],[0],,['target'],P2,1,2024-10-06_14h54.12.638,untitled,2024.1.5,None,2024-10-06 14h54.24.235627 +0530
4,0,4,0,12.4081624,,12.3483755,5,1.244733,12.4081624,12.4081624,0.0380251,14.0108908,[-0.4375],[0.03888888888888889],[1],[0],[0],,['target'],P2,1,2024-10-06_14h54.12.638,untitled,2024.1.5,None,2024-10-06 14h54.24.235627 +0530
5,0,5,0,14.0579478,,14.0156577,5,1.4640755,14.0579478,14.0579478,0.0197148,15.3786653,[0.18472222222222223],[0.125],[1],[0],[0],,['target'],P2,1,2024-10-06_14h54.12.638,untitled,2024.1.5,None,2024-10-06 14h54.24.235627 +0530
6,0,6,0,15.4247046,,15.3827878,5,1.7133825,15.4247046,15.4247046,0.0252324,16.9613098,[-0.41805555555555557],[-0.005555555555555556],[1],[0],[0],,['target'],P2,1,2024-10-06_14h54.12.638,untitled,2024.1.5,None,2024-10-06 14h54.24.235627 +0530
7,0,7,0,17.0243282,,16.9656433,5,3.4209809,17.0243282,17.0243282,0.034744,19.5270405,[0.24027777777777778],[0.4444444444444444],[1],[0],[0],,['target'],P2,1,2024-10-06_14h54.12.638,untitled,2024.1.5,None,2024-10-06 14h54.24.235627 +0530
8,0,8,0,19.5575729,,19.5311379,5,1.9967905,19.5575729,19.5575729,0.0170852,21.4462532,[0.39861111111111114],[-0.24305555555555555],[1],[0],[0],,['target'],P2,1,2024-10-06_14h54.12.638,untitled,2024.1.5,None,2024-10-06 14h54.24.235627 +0530
9,0,9,0,21.5080307,,21.4506028,5,1.9978327,21.5080307,21.5080307,0.04093,24.0110682,[-0.044444444444444446],[0.35694444444444445],[1],[0],[0],,['target'],P2,1,2024-10-06_14h54.12.638,untitled,2024.1.5,None,2024-10-06 14h54.24.235627 +0530
10,0,10,0,24.0576437,,24.0150386,5,1.9242011,24.0576437,24.0576437,0.0183953,25.2778454,[-0.35138888888888886],[0.35],[1],[0],[0],,['target'],P2,1,2024-10-06_14h54.12.638,untitled,2024.1.5,None,2024-10-06 14h54.24.235627 +0530
11,0,11,0,25.3410905,,25.2823261,5,1.9739638,25.3410905,25.3410905,0.0369889,28.0103027,[0.034722222222222224],[0.49027777777777776],[1],[0],[0],,['target'],P2,1,2024-10-06_14h54.12.638,untitled,2024.1.5,None,2024-10-06 14h54.24.235627 +0530
12,0,12,0,28.0748671,,28.0140128,5,2.8754536,28.0748671,28.0748671,0.0324482,29.993645,[0.3416666666666667],[-0.1125],[1],[0],[0],,['target'],P2,1,2024-10-06_14h54.12.638,untitled,2024.1.5,None,2024-10-06 14h54.24.235627 +0530
13,0,13,0,30.0408255,,29.9975953,5,1.577005,30.0408255,30.0408255,0.0313742,31.1102626,[0.14166666666666666],[-0.1388888888888889],[1],[0],[0],,['target'],P2,1,2024-10-06_14h54.12.638,untitled,2024.1.5,None,2024-10-06 14h54.24.235627 +0530
14,0,14,0,31.1407957,,31.1139253,5,0.9185607,31.1407957,31.1407957,0.0175718,32.5955039,[-0.12083333333333333],[-0.2375],[1],[0],[0],,['target'],P2,1,2024-10-06_14h54.12.638,untitled,2024.1.5,None,2024-10-06 14h54.24.235627 +0530
15,0,15,0,32.6408482,,32.5998393,5,1.2906127,32.6408482,32.6408482,0.0185547,34.3315952,[-0.44583333333333336],[0.08333333333333333],[1],[0],[0],,['target'],P2,1,2024-10-06_14h54.12.638,untitled,2024.1.5,None,2024-10-06 14h54.24.235627 +0530
16,0,16,0,34.3742604,,34.3364709,5,1.0959368,34.3742604,34.3742604,0.0203367,37.7774118,[0.24722222222222223],[0.059722222222222225],[1],[0],[0],,['target'],P2,1,2024-10-06_14h54.12.638,untitled,2024.1.5,None,2024-10-06 14h54.24.235627 +0530
17,0,17,0,37.8406658,,37.7822611,5,1.1929353,37.8406658,37.8406658,0.0343155,39.7433771,[-0.3527777777777778],[0.14444444444444443],[1],[0],[0],,['target'],P2,1,2024-10-06_14h54.12.638,untitled,2024.1.5,None,2024-10-06 14h54.24.235627 +0530
18,0,18,0,39.7741383,,39.7472157,5,1.5757617,39.7741383,39.7741383,0.0172685,41.7611308,[0.3347222222222222],[-0.475],[1],[0],[0],,['target'],P2,1,2024-10-06_14h54.12.638,untitled,2024.1.5,None,2024-10-06 14h54.24.235627 +0530
19,0,19,0,41.8240146,,41.7654863,5,1.2539199,41.8240146,41.8240146,0.0320899,44.0442487,[-0.23472222222222222],[-0.19027777777777777],[1],[0],[0],,['target'],P2,1,2024-10-06_14h54.12.638,untitled,2024.1.5,None,2024-10-06 14h54.24.235627 +0530
20,0,20,0,44.1078543,,44.04844,5,1.3606794,44.1078543,44.1078543,0.0436657,45.6444384,[-0.5125],[0.28055555555555556],[1],[0],[0],,['target'],P2,1,2024-10-06_14h54.12.638,untitled,2024.1.5,None,2024-10-06 14h54.24.235627 +0530
21,0,21,0,45.7074422,,45.6487531,5,1.1594573,45.7074422,45.7074422,0.0333912,46.9097003,[-0.4375],[0.19444444444444445],[1],[0],[0],,['target'],P2,1,2024-10-06_14h54.12.638,untitled,2024.1.5,None,2024-10-06 14h54.24.235627 +0530
22,0,22,0,46.940529,,46.9135614,5,1.2268011,46.940529,46.940529,0.0170481,48.9283781,[0.42777777777777776],[0.225],[1],[0],[0],,[],P2,1,2024-10-06_14h54.12.638,untitled,2024.1.5,None,2024-10-06 14h54.24.235627 +0530
23,0,23,0,48.9904547,,48.9327455,5,0.9934262,48.9904547,48.9904547,0.0323613,50.2934163,[0.12222222222222222],[-0.03888888888888889],[1],[0],[0],,['target'],P2,1,2024-10-06_14h54.12.638,untitled,2024.1.5,None,2024-10-06 14h54.24.235627 +0530
24,0,24,0,50.3574011,,50.2980853,5,1.2711366,50.3574011,50.3574011,0.0329233,52.0604622,[0.19722222222222222],[-0.2152777777777778],[1],[0],[0],,['target'],P2,1,2024-10-06_14h54.12.638,untitled,2024.1.5,None,2024-10-06 14h54.24.235627 +0530
25,0,25,0,52.1071465,,52.0642406,5,1.0741569,52.1071465,52.1071465,0.0316515,54.2597208,[-0.14305555555555555],[-0.38055555555555554],[1],[0],[0],,[],P2,1,2024-10-06_14h54.12.638,untitled,2024.1.5,None,2024-10-06 14h54.24.235627 +0530
26,0,26,0,54.3075466,,54.2662855,5,1.2593413,54.3075466,54.3075466,0.0217045,56.2105494,[0.17916666666666667],[0.09583333333333334],[1],[0],[0],,['target'],P2,1,2024-10-06_14h54.12.638,untitled,2024.1.5,None,2024-10-06 14h54.24.235627 +0530
27,0,27,0,56.2571365,,56.2149212,5,1.1126545,56.2571365,56.2571365,0.0229126,58.211491,[0.075],[-0.15694444444444444],[1],[0],[0],,['target'],P2,1,2024-10-06_14h54.12.638,untitled,2024.1.5,None,2024-10-06 14h54.24.235627 +0530
28,0,28,0,58.2570596,,58.2156286,5,1.9247355,58.2570596,58.2570596,0.0199078,61.1107903,[0.18055555555555555],[0.46944444444444444],[1],[0],[0],,['target'],P2,1,2024-10-06_14h54.12.638,untitled,2024.1.5,None,2024-10-06 14h54.24.235627 +0530
29,0,29,0,61.1573177,,61.1150941,5,2.0964789,61.1573177,61.1573177,0.0188669,62.7107229,[0.33194444444444443],[-0.4486111111111111],[1],[0],[0],,['target'],P2,1,2024-10-06_14h54.12.638,untitled,2024.1.5,None,2024-10-06 14h54.24.235627 +0530
30,0,30,0,62.7737294,,62.7149325,5,1.4590885,62.7737294,62.7737294,0.0333254,64.343952,[0.20833333333333334],[0.30972222222222223],[1],[0],[0],,['target'],P2,1,2024-10-06_14h54.12.638,untitled,2024.1.5,None,2024-10-06 14h54.24.235627 +0530
31,0,31,0,64.3905927,,64.3486492,5,2.3756217,64.3905927,64.3905927,0.0270081,65.2939068,[0.09722222222222222],[0.3138888888888889],[1],[0],[0],,[],P2,1,2024-10-06_14h54.12.638,untitled,2024.1.5,None,2024-10-06 14h54.24.235627 +0530
32,0,32,0,65.3431229,,65.3011113,5,1.16056,65.3431229,65.3431229,0.0194021,66.6103297,[-0.2986111111111111],[0.20694444444444443],[1],[0],[0],,['target'],P2,1,2024-10-06_14h54.12.638,untitled,2024.1.5,None,2024-10-06 14h54.24.235627 +0530
33,0,33,0,66.6740812,,66.6145934,5,1.1787549,66.6740812,66.6740812,0.0354249,67.9763238,[-0.48194444444444445],[0.3277777777777778],[1],[0],[0],,[],P2,1,2024-10-06_14h54.12.638,untitled,2024.1.5,None,2024-10-06 14h54.24.235627 +0530
34,0,34,0,68.0232407,,67.9800562,5,1.0128275,68.0232407,68.0232407,0.0313395,71.1264133,[0.19166666666666668],[-0.48194444444444445],[1],[0],[0],,['target'],P2,1,2024-10-06_14h54.12.638,untitled,2024.1.5,None,2024-10-06 14h54.24.235627 +0530
35,0,35,0,71.1566416,,71.1300874,5,1.1604177,71.1566416,71.1566416,0.0176398,72.243508,[0.03333333333333333],[0.075],[1],[0],[0],,['target'],P2,1,2024-10-06_14h54.12.638,untitled,2024.1.5,None,2024-10-06 14h54.24.235627 +0530
36,0,36,0,72.2902412,,72.2482919,5,1.9931945,72.2902412,72.2902412,0.019242,73.4601517,[-0.41944444444444445],[0.002777777777777778],[1],[0],[0],,['target'],P2,1,2024-10-06_14h54.12.638,untitled,2024.1.5,None,2024-10-06 14h54.24.235627 +0530
37,0,37,0,73.5069459,,73.4645771,5,1.7638502,73.5069459,73.5069459,0.0199428,75.0601339,[-0.14305555555555555],[-0.23333333333333334],[1],[0],[0],,['target'],P2,1,2024-10-06_14h54.12.638,untitled,2024.1.5,None,2024-10-06 14h54.24.235627 +0530
38,0,38,0,75.123277,,75.0645871,5,2.0254515,75.123277,75.123277,0.0332391,76.909574,[-0.016666666666666666],[0.24583333333333332],[1],[0],[0],,[],P2,1,2024-10-06_14h54.12.638,untitled,2024.1.5,None,2024-10-06 14h54.24.235627 +0530
39,0,39,0,76.9578346,,76.9139617,5,1.375885,76.9578346,76.9578346,0.0257327,78.1933095,[0.20972222222222223],[0.1361111111111111],[1],[0],[0],,['target'],P2,1,2024-10-06_14h54.12.638,untitled,2024.1.5,None,2024-10-06 14h54.24.235627 +0530
40,0,40,0,78.2402239,,78.1973317,5,1.1604744,78.2402239,78.2402239,0.0196229,79.5774665,[0.3277777777777778],[0.3597222222222222],[1],[0],[0],,['target'],P2,1,2024-10-06_14h54.12.638,untitled,2024.1.5,None,2024-10-06 14h54.24.235627 +0530
41,0,41,0,79.6235323,,79.5818602,5,2.244322,79.6235323,79.6235323,0.0199081,80.7610017,[0.05277777777777778],[0.4041666666666667],[1],[0],[0],,['target'],P2,1,2024-10-06_14h54.12.638,untitled,2024.1.5,None,2024-10-06 14h54.24.235627 +0530
42,0,42,0,80.8074688,,80.7653656,5,1.8436721,80.8074688,80.8074688,0.0205794,82.0128099,[0.31666666666666665],[0.21388888888888888],[1],[0],[0],,[],P2,1,2024-10-06_14h54.12.638,untitled,2024.1.5,None,2024-10-06 14h54.24.235627 +0530
43,0,43,0,82.0575572,,82.0167986,5,1.159755,82.0575572,82.0575572,0.0218948,83.0322101,[-0.03888888888888889],[0.12777777777777777],[1],[0],[0],,['target'],P2,1,2024-10-06_14h54.12.638,untitled,2024.1.5,None,2024-10-06 14h54.24.235627 +0530
44,0,44,0,83.0738006,,83.0367217,5,1.3766732,83.0738006,83.0738006,0.0205359,84.3283323,[0.2875],[0.030555555555555555],[1],[0],[0],,[],P2,1,2024-10-06_14h54.12.638,untitled,2024.1.5,None,2024-10-06 14h54.24.235627 +0530
45,0,45,0,84.3742771,,84.3326344,5,1.5940858,84.3742771,84.3742771,0.0203117,85.4268487,[0.31527777777777777],[-0.058333333333333334],[1],[0],[0],,['target'],P2,1,2024-10-06_14h54.12.638,untitled,2024.1.5,None,2024-10-06 14h54.24.235627 +0530
46,0,46,0,85.4733731,,85.4314422,5,1.7416493,85.4733731,85.4733731,0.0189019,86.7095251,[-0.3763888888888889],[0.0625],[1],[0],[0],,[],P2,1,2024-10-06_14h54.12.638,untitled,2024.1.5,None,2024-10-06 14h54.24.235627 +0530
47,0,47,0,86.7397464,,86.7142586,5,1.0271721,86.7397464,86.7397464,0.0176548,87.844346,[-0.19027777777777777],[0.4513888888888889],[1],[0],[0],,['target'],P2,1,2024-10-06_14h54.12.638,untitled,2024.1.5,None,2024-10-06 14h54.24.235627 +0530
48,0,48,0,87.8900906,,87.8485537,5,1.3103971,87.8900906,87.8900906,0.020353,89.7933594,[0.4888888888888889],[-0.42777777777777776],[1],[0],[0],,['target'],P2,1,2024-10-06_14h54.12.638,untitled,2024.1.5,None,2024-10-06 14h54.24.235627 +0530
49,0,49,0,89.8564684,,89.7977393,5,1.0773879,89.8564684,89.8564684,0.0324559,91.0095946,[0.3138888888888889],[0.11666666666666667],[1],[0],[0],,['target'],P2,1,2024-10-06_14h54.12.638,untitled,2024.1.5,None,2024-10-06 14h54.24.235627 +0530
50,0,50,0,91.0397199,,91.0134587,5,2.3588169,91.0397199,91.0397199,0.0177411,93.1272992,[0.18333333333333332],[-0.23055555555555557],[1],[0],[0],,[],P2,1,2024-10-06_14h54.12.638,untitled,2024.1.5,None,2024-10-06 14h54.24.235627 +0530
51,0,51,0,93.1736267,,93.1329866,5,1.207402,93.1736267,93.1736267,0.0184884,94.6100949,[-0.23333333333333334],[-0.4583333333333333],[1],[0],[0],,['target'],P2,1,2024-10-06_14h54.12.638,untitled,2024.1.5,None,2024-10-06 14h54.24.235627 +0530
52,0,52,0,94.6569902,,94.614798,5,3.4758714,94.6569902,94.6569902,0.0198045,97.0097524,[-0.17083333333333334],[0.4375],[1],[0],[0],,[],P2,1,2024-10-06_14h54.12.638,untitled,2024.1.5,None,2024-10-06 14h54.24.235627 +0530
53,0,53,0,97.0568133,,97.0142956,5,1.8777513,97.0568133,97.0568133,0.0189959,98.1936232,[-0.5069444444444444],[0.11666666666666667],[1],[0],[0],,[],P2,1,2024-10-06_14h54.12.638,untitled,2024.1.5,None,2024-10-06 14h54.24.235627 +0530
54,0,54,0,98.223449,,98.1976977,5,1.5603104,98.223449,98.223449,0.0174177,99.3937529,[-0.4638888888888889],[-0.325],[1],[0],[0],,['target'],P2,1,2024-10-06_14h54.12.638,untitled,2024.1.5,None,2024-10-06 14h54.24.235627 +0530
55,0,55,0,99.4561729,,99.3987065,5,1.4808214,99.4561729,99.4561729,0.0332548,100.4765067,[-0.14583333333333334],[0.09444444444444444],[1],[0],[0],,['target'],P2,1,2024-10-06_14h54.12.638,untitled,2024.1.5,None,2024-10-06 14h54.24.235627 +0530
56,0,56,0,100.5398313,,100.480985,5,1.474577,100.5398313,100.5398313,0.0368197,101.9090728,[0.3375],[0.32916666666666666],[1],[0],[0],,[],P2,1,2024-10-06_14h54.12.638,untitled,2024.1.5,None,2024-10-06 14h54.24.235627 +0530
57,0,57,0,101.9394991,,101.9131789,5,1.2766291,101.9394991,101.9394991,0.0181536,102.9439154,[-0.2125],[0.3597222222222222],[1],[0],[0],,['target'],P2,1,2024-10-06_14h54.12.638,untitled,2024.1.5,None,2024-10-06 14h54.24.235627 +0530
58,0,58,0,103.006155,,102.9480774,5,1.1913338,103.006155,103.006155,0.0327794,104.0426244,[0.05694444444444444],[0.2972222222222222],[1],[0],[0],,['target'],P2,1,2024-10-06_14h54.12.638,untitled,2024.1.5,None,2024-10-06 14h54.24.235627 +0530
59,0,59,0,104.0897076,,104.0476121,5,1.2849939,104.0897076,104.0897076,0.0196323,105.2274589,[-0.22916666666666666],[0.33194444444444443],[1],[0],[0],,['target'],P2,1,2024-10-06_14h54.12.638,untitled,2024.1.5,None,2024-10-06 14h54.24.235627 +0530
60,0,60,0,105.2902284,,105.2317871,5,1.4477915,105.2902284,105.2902284,0.0371278,106.6585055,[-0.49722222222222223],[0.36666666666666664],[1],[0],[0],,['target'],P2,1,2024-10-06_14h54.12.638,untitled,2024.1.5,None,2024-10-06 14h54.24.235627 +0530
61,0,61,0,106.7236933,,106.6629116,5,1.0393847,106.7236933,106.7236933,0.03506,107.9095269,[0.1361111111111111],[0.020833333333333332],[1],[0],[0],,['target'],P2,1,2024-10-06_14h54.12.638,untitled,2024.1.5,None,2024-10-06 14h54.24.235627 +0530
62,0,62,0,107.9564088,,107.9149481,5,1.4786629,107.9564088,107.9564088,0.0193576,109.9271502,[0.5041666666666667],[-0.32916666666666666],[1],[0],[0],,['target'],P2,1,2024-10-06_14h54.12.638,untitled,2024.1.5,None,2024-10-06 14h54.24.235627 +0530
63,0,63,0,109.9894186,,109.9323095,5,1.2789057,109.9894186,109.9894186,0.033286,112.2428166,[-0.004166666666666667],[0.022222222222222223],[1],[0],[0],,['target'],P2,1,2024-10-06_14h54.12.638,untitled,2024.1.5,None,2024-10-06 14h54.24.235627 +0530
64,0,64,0,112.2893909,,112.2465785,5,0.9081625,112.2893909,112.2893909,0.0306781,114.3433699,[-0.12222222222222222],[-0.14444444444444443],[1],[0],[0],,[],P2,1,2024-10-06_14h54.12.638,untitled,2024.1.5,None,2024-10-06 14h54.24.235627 +0530
65,0,65,0,114.4063139,,114.3471223,5,1.3919731,114.4063139,114.4063139,0.0327988,116.0588327,[0.18888888888888888],[-0.06388888888888888],[1],[0],[0],,['target'],P2,1,2024-10-06_14h54.12.638,untitled,2024.1.5,None,2024-10-06 14h54.24.235627 +0530
66,0,66,0,116.0892646,,116.0625276,5,1.3433706,116.0892646,116.0892646,0.0170291,117.8433141,[-0.07777777777777778],[-0.44305555555555554],[1],[0],[0],,['target'],P2,1,2024-10-06_14h54.12.638,untitled,2024.1.5,None,2024-10-06 14h54.24.235627 +0530
67,0,67,0,117.8895163,,117.8476743,5,2.4442742,117.8895163,117.8895163,0.0204095,119.8936846,[-0.12083333333333333],[-0.46805555555555556],[1],[0],[0],,['target'],P2,1,2024-10-06_14h54.12.638,untitled,2024.1.5,None,2024-10-06 14h54.24.235627 +0530
68,0,68,0,119.9403514,,119.8981625,5,1.9924957,119.9403514,119.9403514,0.0191315,121.2929783,[-0.26805555555555555],[-0.22083333333333333],[1],[0],[0],,['target'],P2,1,2024-10-06_14h54.12.638,untitled,2024.1.5,None,2024-10-06 14h54.24.235627 +0530
69,0,69,0,121.3394259,,121.297495,5,1.3740271,121.3394259,121.3394259,0.020386,122.4783228,[-0.25],[0.12638888888888888],[1],[0],[0],,['target'],P2,1,2024-10-06_14h54.12.638,untitled,2024.1.5,None,2024-10-06 14h54.24.235627 +0530
70,0,70,0,122.5392998,,122.4854081,5,0.543024,122.5392998,122.5392998,0.0405692,123.1261761,[-0.25],[0.12638888888888888],[1],[0],[0],,['target'],P2,1,2024-10-06_14h54.12.638,untitled,2024.1.5,None,2024-10-06 14h54.24.235627 +0530
71,0,71,0,123.1892036,,123.1302003,5,1.8214647,123.1892036,123.1892036,0.0314616,123.9934833,[-0.25],[0.12638888888888888],[1],[0],[0],,[],P2,1,2024-10-06_14h54.12.638,untitled,2024.1.5,None,2024-10-06 14h54.24.235627 +0530
72,0,72,0,124.040154,,123.9978848,5,1.2663408,124.040154,124.040154,0.0179853,126.2599213,[0.3611111111111111],[-0.22083333333333333],[1],[0],[0],,[],P2,1,2024-10-06_14h54.12.638,untitled,2024.1.5,None,2024-10-06 14h54.24.235627 +0530
73,0,73,0,126.3226877,,126.2640068,5,3.2645268,126.3226877,126.3226877,0.0337194,127.4928758,[-0.25833333333333336],[0.07083333333333333],[1],[0],[0],,[],P2,1,2024-10-06_14h54.12.638,untitled,2024.1.5,None,2024-10-06 14h54.24.235627 +0530
74,0,74,0,127.5562682,,127.4973816,5,1.426886,127.5562682,127.5562682,0.0397041,130.6259711,[-0.14583333333333334],[-0.16527777777777777],[1],[0],[0],,['target'],P2,1,2024-10-06_14h54.12.638,untitled,2024.1.5,None,2024-10-06 14h54.24.235627 +0530
75,0,75,0,130.6727467,,130.6303194,5,1.3797459,130.6727467,130.6727467,0.0199686,132.4936246,[-0.41944444444444445],[-0.28055555555555556],[1],[0],[0],,[],P2,1,2024-10-06_14h54.12.638,untitled,2024.1.5,None,2024-10-06 14h54.24.235627 +0530
76,0,76,0,132.5392869,,132.4980148,5,1.1733946,132.5392869,132.5392869,0.0189489,133.6764831,[-0.42777777777777776],[-0.09027777777777778],[1],[0],[0],,['target'],P2,1,2024-10-06_14h54.12.638,untitled,2024.1.5,None,2024-10-06 14h54.24.235627 +0530
77,0,77,0,133.7390249,,133.6812645,5,1.2707383,133.7390249,133.7390249,0.0326979,136.8414447,[0.02638888888888889],[0.44583333333333336],[1],[0],[0],,['target'],P2,1,2024-10-06_14h54.12.638,untitled,2024.1.5,None,2024-10-06 14h54.24.235627 +0530
78,0,78,0,136.8889657,,136.8467695,5,1.1609007,136.8889657,136.8889657,0.0197447,138.2428712,[0.36944444444444446],[0.15],[1],[0],[0],,[],P2,1,2024-10-06_14h54.12.638,untitled,2024.1.5,None,2024-10-06 14h54.24.235627 +0530
79,0,79,0,138.2897926,,138.2469713,5,1.3298683,138.2897926,138.2897926,0.0188098,139.8598609,[-0.2972222222222222],[-0.21666666666666667],[1],[0],[0],,[],P2,1,2024-10-06_14h54.12.638,untitled,2024.1.5,None,2024-10-06 14h54.24.235627 +0530
80,0,80,0,139.9066182,,139.8641678,5,1.5471503,139.9066182,139.9066182,0.0211605,141.6267568,[0.2708333333333333],[-0.16805555555555557],[1],[0],[0],,[],P2,1,2024-10-06_14h54.12.638,untitled,2024.1.5,None,2024-10-06 14h54.24.235627 +0530
81,0,81,0,141.6753462,,141.6312565,5,1.3949122,141.6753462,141.6753462,0.0184569,142.6764679,[0.32916666666666666],[-0.04722222222222222],[1],[0],[0],,['target'],P2,1,2024-10-06_14h54.12.638,untitled,2024.1.5,None,2024-10-06 14h54.24.235627 +0530
82,0,82,0,142.7224774,,142.6808081,5,1.3597087,142.7224774,142.7224774,0.0189253,144.0098429,[0.2777777777777778],[0.19305555555555556],[1],[0],[0],,['target'],P2,1,2024-10-06_14h54.12.638,untitled,2024.1.5,None,2024-10-06 14h54.24.235627 +0530
83,0,83,0,144.0723236,,144.0143066,5,1.2107015,144.0723236,144.0723236,0.0322151,145.7589272,[0.11666666666666667],[0.04722222222222222],[1],[0],[0],,['target'],P2,1,2024-10-06_14h54.12.638,untitled,2024.1.5,None,2024-10-06 14h54.24.235627 +0530
84,0,84,0,145.8062561,,145.7633012,5,1.4607683,145.8062561,145.8062561,0.0186113,146.8589957,[0.10833333333333334],[0.20555555555555555],[1],[0],[0],,['target'],P2,1,2024-10-06_14h54.12.638,untitled,2024.1.5,None,2024-10-06 14h54.24.235627 +0530
85,0,85,0,146.9221974,,146.8637152,5,1.3758644,146.9221974,146.9221974,0.0325668,148.3609794,[0.03888888888888889],[0.027777777777777776],[1],[0],[0],,['target'],P2,1,2024-10-06_14h54.12.638,untitled,2024.1.5,None,2024-10-06 14h54.24.235627 +0530
86,0,86,0,148.4221723,,148.3652373,5,1.5254999,148.4221723,148.4221723,0.0324497,149.8590342,[-0.18888888888888888],[0.23472222222222222],[1],[0],[0],,[],P2,1,2024-10-06_14h54.12.638,untitled,2024.1.5,None,2024-10-06 14h54.24.235627 +0530
87,0,87,0,149.9053566,,149.8628051,5,1.6971701,149.9053566,149.9053566,0.0303471,151.1450178,[0.12638888888888888],[0.3263888888888889],[1],[0],[0],,['target'],P2,1,2024-10-06_14h54.12.638,untitled,2024.1.5,None,2024-10-06 14h54.24.235627 +0530
88,0,88,0,151.1888783,,151.1495602,5,1.5297412,151.1888783,151.1888783,0.0187657,153.5270179,[-0.3611111111111111],[-0.14027777777777778],[1],[0],[0],,['target'],P2,1,2024-10-06_14h54.12.638,untitled,2024.1.5,None,2024-10-06 14h54.24.235627 +0530
89,0,89,0,153.572219,,153.5320274,5,1.5277803,153.572219,153.572219,0.020163,154.7590218,[0.18472222222222223],[0.31527777777777777],[1],[0],[0],,['target'],P2,1,2024-10-06_14h54.12.638,untitled,2024.1.5,None,2024-10-06 14h54.24.235627 +0530
90,0,90,0,154.8222157,,154.7634795,5,1.3753334,154.8222157,154.8222157,0.0328206,158.9255584,[0.23472222222222222],[-0.4513888888888889],[1],[0],[0],,[],P2,1,2024-10-06_14h54.12.638,untitled,2024.1.5,None,2024-10-06 14h54.24.235627 +0530
91,0,91,0,158.9728003,,158.9294346,5,1.2813078,158.9728003,158.9728003,0.0205045,162.4255965,[-0.31805555555555554],[0.34305555555555556],[1],[0],[0],,['target'],P2,1,2024-10-06_14h54.12.638,untitled,2024.1.5,None,2024-10-06 14h54.24.235627 +0530
92,0,92,0,162.472158,,162.4297855,5,1.3261962,162.472158,162.472158,0.0186651,164.325854,[0.44027777777777777],[-0.3458333333333333],[1],[0],[0],,[],P2,1,2024-10-06_14h54.12.638,untitled,2024.1.5,None,2024-10-06 14h54.24.235627 +0530
93,0,93,0,164.3751658,,164.3301833,5,1.5221206,164.3751658,164.3751658,0.0193334,165.9097346,[-0.3347222222222222],[-0.2847222222222222],[1],[0],[0],,['target'],P2,1,2024-10-06_14h54.12.638,untitled,2024.1.5,None,2024-10-06 14h54.24.235627 +0530
94,0,94,0,165.9722543,,165.914879,5,1.3609846,165.9722543,165.9722543,0.0418521,168.5913708,[-0.44583333333333336],[-0.375],[1],[0],[0],,['target'],P2,1,2024-10-06_14h54.12.638,untitled,2024.1.5,None,2024-10-06 14h54.24.235627 +0530
95,0,95,0,168.621833,,168.5951801,5,1.5416735,168.621833,168.621833,0.0171547,170.0929477,[-0.225],[0.36944444444444446],[1],[0],[0],,['target'],P2,1,2024-10-06_14h54.12.638,untitled,2024.1.5,None,2024-10-06 14h54.24.235627 +0530
96,0,96,0,170.1386464,,170.0971856,5,0.9936749,170.1386464,170.1386464,0.0205095,171.5920062,[0.48333333333333334],[-0.05],[1],[0],[0],,['target'],P2,1,2024-10-06_14h54.12.638,untitled,2024.1.5,None,2024-10-06 14h54.24.235627 +0530
97,0,97,0,171.6387677,,171.5970006,5,1.4108815,171.6387677,171.6387677,0.0197922,172.8928119,[0.08472222222222223],[-0.2375],[1],[0],[0],,['target'],P2,1,2024-10-06_14h54.12.638,untitled,2024.1.5,None,2024-10-06 14h54.24.235627 +0530
98,0,98,0,172.9551443,,172.8996874,5,1.9784649,172.9551443,172.9551443,0.0362805,174.1756408,[-0.07083333333333333],[0.3347222222222222],[1],[0],[0],,['target'],P2,1,2024-10-06_14h54.12.638,untitled,2024.1.5,None,2024-10-06 14h54.24.235627 +0530
99,0,99,0,174.2388004,,174.179524,5,1.3585627,174.2388004,174.2388004,0.0382796,175.8088239,[0.425],[0.044444444444444446],[1],[0],[0],,[],P2,1,2024-10-06_14h54.12.638,untitled,2024.1.5,None,2024-10-06 14h54.24.235627 +0530
100,0,100,0,175.8719841,,175.8128601,5,1.2132112,175.8719841,175.8719841,0.0371858,176.9757721,[0.21805555555555556],[0.2222222222222222],[1],[0],[0],,['target'],P2,1,2024-10-06_14h54.12.638,untitled,2024.1.5,None,2024-10-06 14h54.24.235627 +0530
101,0,101,0,177.0225004,,176.9805069,5,0.6904478,177.0225004,177.0225004,0.0223545,178.194461,[0.35555555555555557],[-0.24722222222222223],[1],[0],[0],,['target'],P2,1,2024-10-06_14h54.12.638,untitled,2024.1.5,None,2024-10-06 14h54.24.235627 +0530
102,0,102,0,178.2390429,,178.2037514,5,1.6582939,178.2390429,178.2390429,0.0211933,179.5091042,[-0.2111111111111111],[-0.1375],[1],[0],[0],,[],P2,1,2024-10-06_14h54.12.638,untitled,2024.1.5,None,2024-10-06 14h54.24.235627 +0530
103,0,103,0,179.5717703,,179.5135207,5,3.0294021,179.5717703,179.5717703,0.0326063,182.0754429,[0.4625],[0.4388888888888889],[1],[0],[0],,['target'],P2,1,2024-10-06_14h54.12.638,untitled,2024.1.5,None,2024-10-06 14h54.24.235627 +0530
104,0,104,0,182.1393462,,182.0846694,5,1.8259561,182.1393462,182.1393462,0.0378647,186.1246699,[-0.18472222222222223],[0.4847222222222222],[1],[0],[0],,['target'],P2,1,2024-10-06_14h54.12.638,untitled,2024.1.5,None,2024-10-06 14h54.24.235627 +0530
105,0,105,0,186.1722733,,186.1285636,5,1.7476624,186.1722733,186.1722733,0.0198176,187.5960854,[0.09861111111111111],[-0.28888888888888886],[1],[0],[0],,['target'],P2,1,2024-10-06_14h54.12.638,untitled,2024.1.5,None,2024-10-06 14h54.24.235627 +0530
106,0,106,0,187.6384422,,187.600864,5,1.5907962,187.6384422,187.6384422,0.0184149,188.6582719,[0.1486111111111111],[-0.08472222222222223],[1],[0],[0],,[],P2,1,2024-10-06_14h54.12.638,untitled,2024.1.5,None,2024-10-06 14h54.24.235627 +0530
107,0,107,0,188.6881527,,188.6625961,5,1.6295607,188.6881527,188.6881527,0.0171055,190.1580984,[-0.5263888888888889],[0.21666666666666667],[1],[0],[0],,[],P2,1,2024-10-06_14h54.12.638,untitled,2024.1.5,None,2024-10-06 14h54.24.235627 +0530
108,0,108,0,190.2225749,,190.1621303,10,7.0523329,190.2225749,190.2225749,0.0375525,191.4409257,[-0.15555555555555556],[0.38333333333333336],[1],[0],[0],,['target'],P2,1,2024-10-06_14h54.12.638,untitled,2024.1.5,None,2024-10-06 14h54.24.235627 +0530
109,0,109,0,191.4884277,,191.4447356,10,1.4452627,191.4884277,191.4884277,0.0314125,193.0090155,[-0.5097222222222222],[-0.30972222222222223],[1],[0],[0],,['target'],P2,1,2024-10-06_14h54.12.638,untitled,2024.1.5,None,2024-10-06 14h54.24.235627 +0530
110,0,110,0,193.0718635,,193.0131087,10,2.5109117,193.0718635,193.0718635,0.0359196,196.0419667,[0.05555555555555555],[-0.4777777777777778],[1],[0],[0],,['target'],P2,1,2024-10-06_14h54.12.638,untitled,2024.1.5,None,2024-10-06 14h54.24.235627 +0530
111,0,111,0,196.0881723,,196.0457531,10,1.6246859,196.0881723,196.0881723,0.0176573,197.3421505,[-0.40694444444444444],[-0.19305555555555556],[1],[0],[0],,['target'],P2,1,2024-10-06_14h54.12.638,untitled,2024.1.5,None,2024-10-06 14h54.24.235627 +0530
112,0,112,0,197.4047636,,197.3466291,10,2.5270029,197.4047636,197.4047636,0.0330262,198.610714,[0.25],[-0.3138888888888889],[1],[0],[0],,[],P2,1,2024-10-06_14h54.12.638,untitled,2024.1.5,None,2024-10-06 14h54.24.235627 +0530
113,0,113,0,198.6551241,,198.6151145,10,2.5199359,198.6551241,198.6551241,0.0193468,199.5421138,[0.4013888888888889],[-0.2569444444444444],[1],[0],[0],,[],P2,1,2024-10-06_14h54.12.638,untitled,2024.1.5,None,2024-10-06 14h54.24.235627 +0530
114,0,114,0,199.58818,,199.546377,10,2.6913576,199.58818,199.58818,0.0204588,200.9585213,[-0.1111111111111111],[0.030555555555555555],[1],[0],[0],,['target'],P2,1,2024-10-06_14h54.12.638,untitled,2024.1.5,None,2024-10-06 14h54.24.235627 +0530
115,0,115,0,201.0059366,,200.9629085,10,1.9474415,201.0059366,201.0059366,0.0193086,202.3253924,[-0.4875],[-0.10416666666666667],[1],[0],[0],,['target'],P2,1,2024-10-06_14h54.12.638,untitled,2024.1.5,None,2024-10-06 14h54.24.235627 +0530
116,0,116,0,202.3715841,,202.3294681,10,1.0816534,202.3715841,202.3715841,0.0193571,204.792993,[-0.4638888888888889],[0.475],[1],[0],[0],,['target'],P2,1,2024-10-06_14h54.12.638,untitled,2024.1.5,None,2024-10-06 14h54.24.235627 +0530
117,0,117,0,204.8380694,,204.798259,10,1.9271338,204.8380694,204.8380694,0.017896,206.8083979,[-0.23333333333333334],[-0.21666666666666667],[1],[0],[0],,[],P2,1,2024-10-06_14h54.12.638,untitled,2024.1.5,None,2024-10-06 14h54.24.235627 +0530
118,0,118,0,206.871767,,206.8128385,10,2.2468218,206.871767,206.871767,0.0353761,209.4905585,[-0.42916666666666664],[0.2763888888888889],[1],[0],[0],,['target'],P2,1,2024-10-06_14h54.12.638,untitled,2024.1.5,None,2024-10-06 14h54.24.235627 +0530
119,0,119,0,209.5376947,,209.4943291,10,1.5525968,209.5376947,209.5376947,0.0308325,211.6574368,[-0.16111111111111112],[0.008333333333333333],[1],[0],[0],,['target'],P2,1,2024-10-06_14h54.12.638,untitled,2024.1.5,None,2024-10-06 14h54.24.235627 +0530
120,0,120,0,211.7045465,,211.6614479,10,1.2279982,211.7045465,211.7045465,0.0300201,214.0411041,[-0.4583333333333333],[-0.35],[1],[0],[0],,['target'],P2,1,2024-10-06_14h54.12.638,untitled,2024.1.5,None,2024-10-06 14h54.24.235627 +0530
121,0,121,0,214.1053795,,214.0451783,10,1.3284587,214.1053795,214.1053795,0.0375397,216.1591163,[-0.39305555555555555],[0.3388888888888889],[1],[0],[0],,[],P2,1,2024-10-06_14h54.12.638,untitled,2024.1.5,None,2024-10-06 14h54.24.235627 +0530
122,0,122,0,216.2055092,,216.1634095,10,1.7298377,216.2055092,216.2055092,0.0206675,217.5578847,[0.2652777777777778],[0.44166666666666665],[1],[0],[0],,[],P2,1,2024-10-06_14h54.12.638,untitled,2024.1.5,None,2024-10-06 14h54.24.235627 +0530
123,0,123,0,217.604594,,217.5622788,10,2.1641153,217.604594,217.604594,0.0207472,218.1259113,[0.2652777777777778],[0.44166666666666665],[1],[0],[0],,[],P2,1,2024-10-06_14h54.12.638,untitled,2024.1.5,None,2024-10-06 14h54.24.235627 +0530
124,0,124,0,218.1720238,,218.133535,10,1.5956868,218.1720238,218.1720238,0.0211378,219.9752378,[0.30972222222222223],[-0.03333333333333333],[1],[0],[0],,[],P2,1,2024-10-06_14h54.12.638,untitled,2024.1.5,None,2024-10-06 14h54.24.235627 +0530
125,0,125,0,220.038567,,219.9799951,10,1.3269479,220.038567,220.038567,0.0352816,223.8242167,[-0.13472222222222222],[0.06805555555555555],[1],[0],[0],,['target'],P2,1,2024-10-06_14h54.12.638,untitled,2024.1.5,None,2024-10-06 14h54.24.235627 +0530
126,0,126,0,223.8876289,,223.8280006,10,3.115314,223.8876289,223.8876289,0.0314745,225.1410985,[-0.0625],[0.2847222222222222],[1],[0],[0],,['target'],P2,1,2024-10-06_14h54.12.638,untitled,2024.1.5,None,2024-10-06 14h54.24.235627 +0530
127,0,127,0,225.204251,,225.1446583,10,1.8117629,225.204251,225.204251,0.0319656,227.1577286,[-0.3486111111111111],[-0.40694444444444444],[1],[0],[0],,['target'],P2,1,2024-10-06_14h54.12.638,untitled,2024.1.5,None,2024-10-06 14h54.24.235627 +0530
128,0,128,0,227.2045434,,227.1612749,10,1.1798001,227.2045434,227.2045434,0.0190726,228.4470563,[-0.2833333333333333],[-0.1875],[1],[0],[0],,[],P2,1,2024-10-06_14h54.12.638,untitled,2024.1.5,None,2024-10-06 14h54.24.235627 +0530
129,0,129,0,228.5043334,,228.4514536,10,1.044457,228.5043334,228.5043334,0.0379588,231.9234206,[0.22916666666666666],[-0.4388888888888889],[1],[0],[0],,['target'],P2,1,2024-10-06_14h54.12.638,untitled,2024.1.5,None,2024-10-06 14h54.24.235627 +0530
130,0,130,0,231.9540852,,231.927207,10,1.3916498,231.9540852,231.9540852,0.0171812,235.2093437,[0.37777777777777777],[0.025],[1],[0],[0],,['target'],P2,1,2024-10-06_14h54.12.638,untitled,2024.1.5,None,2024-10-06 14h54.24.235627 +0530
131,0,131,0,235.2708737,,235.2144147,10,1.0619321,235.2708737,235.2708737,0.0389297,236.6582553,[0.48055555555555557],[0.09166666666666666],[1],[0],[0],,['target'],P2,1,2024-10-06_14h54.12.638,untitled,2024.1.5,None,2024-10-06 14h54.24.235627 +0530
132,0,132,0,236.7216161,,236.6622903,10,1.389779,236.7216161,236.7216161,0.0365176,238.2908605,[-0.18611111111111112],[-0.009722222222222222],[1],[0],[0],,[],P2,1,2024-10-06_14h54.12.638,untitled,2024.1.5,None,2024-10-06 14h54.24.235627 +0530
133,0,133,0,238.3540343,,238.2947831,10,1.2111885,238.3540343,238.3540343,0.031908,239.6245732,[-0.15833333333333333],[0.20694444444444443],[1],[0],[0],,['target'],P2,1,2024-10-06_14h54.12.638,untitled,2024.1.5,None,2024-10-06 14h54.24.235627 +0530
134,0,134,0,239.6714099,,239.6285233,10,2.2776706,239.6714099,239.6714099,0.0202536,241.0757976,[-0.1125],[0.09305555555555556],[1],[0],[0],,['target'],P2,1,2024-10-06_14h54.12.638,untitled,2024.1.5,None,2024-10-06 14h54.24.235627 +0530
135,0,135,0,241.1374679,,241.0798317,10,2.0664312,241.1374679,241.1374679,0.039183,244.2402249,[0.2513888888888889],[-0.4083333333333333],[1],[0],[0],,['target'],P2,1,2024-10-06_14h54.12.638,untitled,2024.1.5,None,2024-10-06 14h54.24.235627 +0530
136,0,136,0,244.2873341,,244.2441078,10,1.6792365,244.2873341,244.2873341,0.0311097,247.4903009,[0.48194444444444445],[-0.10833333333333334],[1],[0],[0],,['target'],P2,1,2024-10-06_14h54.12.638,untitled,2024.1.5,None,2024-10-06 14h54.24.235627 +0530
137,0,137,0,247.5370495,,247.4945106,10,0.6010604,247.5370495,247.5370495,0.0311299,249.374017,[-0.2972222222222222],[0.075],[1],[0],[0],,['target'],P2,1,2024-10-06_14h54.12.638,untitled,2024.1.5,None,2024-10-06 14h54.24.235627 +0530
138,0,138,0,249.4039423,,249.3775543,10,0.8319211,249.4039423,249.4039423,0.016913,250.7740811,[-0.3527777777777778],[0.39444444444444443],[1],[0],[0],,['target'],P2,1,2024-10-06_14h54.12.638,untitled,2024.1.5,None,2024-10-06 14h54.24.235627 +0530
139,0,139,0,250.82105,,250.778434,10,1.1952946,250.82105,250.82105,0.02211,251.9737899,[-0.18472222222222223],[0.3416666666666667],[1],[0],[0],,['target'],P2,1,2024-10-06_14h54.12.638,untitled,2024.1.5,None,2024-10-06 14h54.24.235627 +0530
140,0,140,0,252.0213741,,251.9786915,10,3.0892105,252.0213741,252.0213741,0.0253496,253.2743525,[-0.4708333333333333],[0.07777777777777778],[1],[0],[0],,['target'],P2,1,2024-10-06_14h54.12.638,untitled,2024.1.5,None,2024-10-06 14h54.24.235627 +0530
141,0,141,0,253.3205969,,253.2785044,10,3.1276675,253.3205969,253.3205969,0.0188194,254.4581514,[-0.09166666666666666],[0.24305555555555555],[1],[0],[0],,['target'],P2,1,2024-10-06_14h54.12.638,untitled,2024.1.5,None,2024-10-06 14h54.24.235627 +0530
142,0,142,0,254.5203964,,254.4626179,10,1.7124628,254.5203964,254.5203964,0.0328462,257.5566073,[0.0],[-0.24305555555555555],[1],[0],[0],,['target'],P2,1,2024-10-06_14h54.12.638,untitled,2024.1.5,None,2024-10-06 14h54.24.235627 +0530
143,0,143,0,257.6210916,,257.5619719,10,1.464942,257.6210916,257.6210916,0.0318422,258.8399749,[0.19166666666666668],[-0.21805555555555556],[1],[0],[0],,['target'],P2,1,2024-10-06_14h54.12.638,untitled,2024.1.5,None,2024-10-06 14h54.24.235627 +0530
144,0,144,0,258.8872458,,258.8438214,10,1.4616372,258.8872458,258.8872458,0.0176659,260.1912071,[0.3819444444444444],[0.08888888888888889],[1],[0],[0],,['target'],P2,1,2024-10-06_14h54.12.638,untitled,2024.1.5,None,2024-10-06 14h54.24.235627 +0530
145,0,145,0,260.2536069,,260.1959393,10,1.2520131,260.2536069,260.2536069,0.0329395,261.539862,[-0.28888888888888886],[0.28055555555555556],[1],[0],[0],,['target'],P2,1,2024-10-06_14h54.12.638,untitled,2024.1.5,None,2024-10-06 14h54.24.235627 +0530
146,0,146,0,261.6036032,,261.5434366,10,4.1293148,261.6036032,261.6036032,0.0317192,263.2066413,[-0.36944444444444446],[-0.15416666666666667],[1],[0],[0],,['target'],P2,1,2024-10-06_14h54.12.638,untitled,2024.1.5,None,2024-10-06 14h54.24.235627 +0530
147,0,147,0,263.2535107,,263.2106228,10,2.6350402,263.2535107,263.2535107,0.0302235,264.7731296,[0.13055555555555556],[0.12083333333333333],[1],[0],[0],,['target'],P2,1,2024-10-06_14h54.12.638,untitled,2024.1.5,None,2024-10-06 14h54.24.235627 +0530
148,0,148,0,264.8201268,,264.7771941,10,1.2402066,264.8201268,264.8201268,0.0309212,266.0571169,[0.02638888888888889],[0.07361111111111111],[1],[0],[0],,['target'],P2,1,2024-10-06_14h54.12.638,untitled,2024.1.5,None,2024-10-06 14h54.24.235627 +0530
149,0,149,0,266.120302,,266.0615629,10,1.5909034,266.120302,266.120302,0.0369206,267.5398398,[0.28888888888888886],[0.09861111111111111],[1],[0],[0],,['target'],P2,1,2024-10-06_14h54.12.638,untitled,2024.1.5,None,2024-10-06 14h54.24.235627 +0530
150,0,150,0,267.5701823,,267.5437269,10,1.1255559,267.5701823,267.5701823,0.0171023,269.1082387,[-0.1875],[-0.22916666666666666],[1],[0],[0],,[],P2,1,2024-10-06_14h54.12.638,untitled,2024.1.5,None,2024-10-06 14h54.24.235627 +0530
151,0,151,0,269.170218,,269.1127367,10,2.5288617,269.170218,269.170218,0.0373751,270.7398212,[0.020833333333333332],[0.2875],[1],[0],[0],,['target'],P2,1,2024-10-06_14h54.12.638,untitled,2024.1.5,None,2024-10-06 14h54.24.235627 +0530
152,0,152,0,270.7867054,,270.7434513,10,4.0031716,270.7867054,270.7867054,0.0302717,273.0922597,[-0.09305555555555556],[-0.2222222222222222],[1],[0],[0],,['target'],P2,1,2024-10-06_14h54.12.638,untitled,2024.1.5,None,2024-10-06 14h54.24.235627 +0530
153,0,153,0,273.154012,,273.0964062,10,1.2416061,273.154012,273.154012,0.0379228,274.7563678,[-0.05138888888888889],[0.3111111111111111],[1],[0],[0],,['target'],P2,1,2024-10-06_14h54.12.638,untitled,2024.1.5,None,2024-10-06 14h54.24.235627 +0530
154,0,154,0,274.8200917,,274.760075,10,1.5329023,274.8200917,274.8200917,0.0310561,277.389115,[-0.24583333333333332],[-0.43194444444444446],[1],[0],[0],,['target'],P2,1,2024-10-06_14h54.12.638,untitled,2024.1.5,None,2024-10-06 14h54.24.235627 +0530
155,0,155,0,277.4369579,,277.3939123,10,2.9933121,277.4369579,277.4369579,0.0191765,278.8076983,[-0.3736111111111111],[0.4027777777777778],[1],[0],[0],,['target'],P2,1,2024-10-06_14h54.12.638,untitled,2024.1.5,None,2024-10-06 14h54.24.235627 +0530
156,0,156,0,278.8542621,,278.811956,10,1.2313572,278.8542621,278.8542621,0.0185198,280.1899702,[-0.4861111111111111],[-0.27361111111111114],[1],[0],[0],,['target'],P2,1,2024-10-06_14h54.12.638,untitled,2024.1.5,None,2024-10-06 14h54.24.235627 +0530
157,0,157,0,280.2372925,,280.1946164,10,2.6427861,280.2372925,280.2372925,0.0197021,281.4247277,[-0.12083333333333333],[-0.3541666666666667],[1],[0],[0],,['target'],P2,1,2024-10-06_14h54.12.638,untitled,2024.1.5,None,2024-10-06 14h54.24.235627 +0530
158,0,158,0,281.4872931,,281.4294187,10,2.1326888,281.4872931,281.4872931,0.0376527,283.7079524,[0.4375],[-0.125],[1],[0],[0],,['target'],P2,1,2024-10-06_14h54.12.638,untitled,2024.1.5,None,2024-10-06 14h54.24.235627 +0530
159,0,159,0,283.7544005,,283.7118816,10,2.3493258,283.7544005,283.7544005,0.0192715,285.191947,[0.25555555555555554],[-0.4097222222222222],[1],[0],[0],,['target'],P2,1,2024-10-06_14h54.12.638,untitled,2024.1.5,None,2024-10-06 14h54.24.235627 +0530
160,0,160,0,285.2374186,,285.1960615,10,2.0762693,285.2374186,285.2374186,0.0191671,286.5908867,[-0.3902777777777778],[-0.10138888888888889],[1],[0],[0],,['target'],P2,1,2024-10-06_14h54.12.638,untitled,2024.1.5,None,2024-10-06 14h54.24.235627 +0530
161,0,161,0,286.6369256,,286.5955496,10,3.8093333,286.6369256,286.6369256,0.0198047,288.1409386,[-0.041666666666666664],[-0.09305555555555556],[1],[0],[0],,['target'],P2,1,2024-10-06_14h54.12.638,untitled,2024.1.5,None,2024-10-06 14h54.24.235627 +0530
162,0,162,0,288.2037297,,288.1451017,10,1.2819424,288.2037297,288.2037297,0.0366857,289.5730151,[-0.2361111111111111],[0.24166666666666667],[1],[0],[0],,['target'],P2,1,2024-10-06_14h54.12.638,untitled,2024.1.5,None,2024-10-06 14h54.24.235627 +0530
163,0,163,0,289.6197104,,289.5767301,10,1.9813773,289.6197104,289.6197104,0.0309506,293.2405023,[0.10416666666666667],[-0.31666666666666665],[1],[0],[0],,['target'],P2,1,2024-10-06_14h54.12.638,untitled,2024.1.5,None,2024-10-06 14h54.24.235627 +0530
164,0,164,0,293.2697403,,293.2437615,10,3.4343434,293.2697403,293.2697403,0.0169915,294.9579686,[0.49166666666666664],[0.4152777777777778],[1],[0],[0],,['target'],P2,1,2024-10-06_14h54.12.638,untitled,2024.1.5,None,2024-10-06 14h54.24.235627 +0530
165,0,165,0,295.0205062,,294.9619751,10,1.4049474,295.0205062,295.0205062,0.0346851,296.7896989,[0.4638888888888889],[-0.03194444444444444],[1],[0],[0],,['target'],P2,1,2024-10-06_14h54.12.638,untitled,2024.1.5,None,2024-10-06 14h54.24.235627 +0530
166,0,166,0,296.8199615,,296.7938001,10,1.5923732,296.8199615,296.8199615,0.0171824,298.3405557,[0.03611111111111111],[-0.07777777777777778],[1],[0],[0],,['target'],P2,1,2024-10-06_14h54.12.638,untitled,2024.1.5,None,2024-10-06 14h54.24.235627 +0530
167,0,167,0,298.4030151,,298.3454339,10,1.297855,298.4030151,298.4030151,0.0352363,299.705401,[0.38055555555555554],[0.35555555555555557],[1],[0],[0],,['target'],P2,1,2024-10-06_14h54.12.638,untitled,2024.1.5,None,2024-10-06 14h54.24.235627 +0530
168,0,168,0,299.7543699,,299.7101877,10,3.1215287,299.7543699,299.7543699,0.0192935,301.2566944,[0.28194444444444444],[0.025],[1],[0],[0],,['target'],P2,1,2024-10-06_14h54.12.638,untitled,2024.1.5,None,2024-10-06 14h54.24.235627 +0530
169,0,169,0,301.319584,,301.26099,10,3.2154008,301.319584,301.319584,0.0323396,303.8393823,[0.24722222222222223],[0.04861111111111111],[1],[0],[0],,['target'],P2,1,2024-10-06_14h54.12.638,untitled,2024.1.5,None,2024-10-06 14h54.24.235627 +0530
170,0,170,0,303.8861836,,303.8431341,10,1.8487468,303.8861836,303.8861836,0.0311818,306.5393786,[0.027777777777777776],[-0.4652777777777778],[1],[0],[0],,['target'],P2,1,2024-10-06_14h54.12.638,untitled,2024.1.5,None,2024-10-06 14h54.24.235627 +0530
171,0,171,0,306.586159,,306.5433038,10,3.0615468,306.586159,306.586159,0.0313191,308.1411307,[0.3638888888888889],[-0.25972222222222224],[1],[0],[0],,['target'],P2,1,2024-10-06_14h54.12.638,untitled,2024.1.5,None,2024-10-06 14h54.24.235627 +0530
172,0,172,0,308.1875121,,308.145099,10,1.2469998,308.1875121,308.1875121,0.0203083,309.5405777,[0.1361111111111111],[-0.14583333333333334],[1],[0],[0],,[],P2,1,2024-10-06_14h54.12.638,untitled,2024.1.5,None,2024-10-06 14h54.24.235627 +0530
173,0,173,0,309.6027316,,309.544922,10,1.3117606,309.6027316,309.6027316,0.0325709,311.0389912,[0.35138888888888886],[0.3375],[1],[0],[0],,[],P2,1,2024-10-06_14h54.12.638,untitled,2024.1.5,None,2024-10-06 14h54.24.235627 +0530
174,0,174,0,311.1032268,,311.0427433,10,1.6316472,311.1032268,311.1032268,0.0346529,312.8057661,[-0.1875],[0.1],[1],[0],[0],,['target'],P2,1,2024-10-06_14h54.12.638,untitled,2024.1.5,None,2024-10-06 14h54.24.235627 +0530
175,0,175,0,312.836091,,312.8093984,10,1.5325319,312.836091,312.836091,0.0168936,314.1077004,[0.14583333333333334],[0.1763888888888889],[1],[0],[0],,['target'],P2,1,2024-10-06_14h54.12.638,untitled,2024.1.5,None,2024-10-06 14h54.24.235627 +0530
176,0,176,0,314.1545589,,314.111737,10,1.2491311,314.1545589,314.1545589,0.0196564,315.4574947,[-0.005555555555555556],[0.27361111111111114],[1],[0],[0],,['target'],P2,1,2024-10-06_14h54.12.638,untitled,2024.1.5,None,2024-10-06 14h54.24.235627 +0530
177,0,177,0,315.5032642,,315.4630702,10,1.4417534,315.5032642,315.5032642,0.0212607,317.0061063,[-0.37916666666666665],[0.05416666666666667],[1],[0],[0],,['target'],P2,1,2024-10-06_14h54.12.638,untitled,2024.1.5,None,2024-10-06 14h54.24.235627 +0530
178,0,178,0,317.0531059,,317.0109222,10,1.5899792,317.0531059,317.0531059,0.0184244,318.3902706,[-0.3347222222222222],[0.3611111111111111],[1],[0],[0],,['target'],P2,1,2024-10-06_14h54.12.638,untitled,2024.1.5,None,2024-10-06 14h54.24.235627 +0530
179,0,179,0,318.4373711,,318.3943081,10,2.3184389,318.4373711,318.4373711,0.0209434,319.9565997,[0.22083333333333333],[0.09861111111111111],[1],[0],[0],,[],P2,1,2024-10-06_14h54.12.638,untitled,2024.1.5,None,2024-10-06 14h54.24.235627 +0530
180,0,180,0,320.0028388,,319.9608029,10,1.6224807,320.0028388,320.0028388,0.0188407,320.9730353,[0.16666666666666666],[0.10138888888888889],[1],[0],[0],,['target'],P2,1,2024-10-06_14h54.12.638,untitled,2024.1.5,None,2024-10-06 14h54.24.235627 +0530
181,0,181,0,321.019662,,320.9779124,10,2.5979907,321.019662,321.019662,0.0185948,322.4073004,[-0.20972222222222223],[0.19027777777777777],[1],[0],[0],,['target'],P2,1,2024-10-06_14h54.12.638,untitled,2024.1.5,None,2024-10-06 14h54.24.235627 +0530
182,0,182,0,322.469685,,322.4117583,10,2.2409389,322.469685,322.469685,0.0378862,323.4055048,[-0.12083333333333333],[0.19722222222222222],[1],[0],[0],,[],P2,1,2024-10-06_14h54.12.638,untitled,2024.1.5,None,2024-10-06 14h54.24.235627 +0530
183,0,183,0,323.4359753,,323.4099064,10,1.3915491,323.4359753,323.4359753,0.0181658,325.4061169,[-0.3333333333333333],[-0.44722222222222224],[1],[0],[0],,['target'],P2,1,2024-10-06_14h54.12.638,untitled,2024.1.5,None,2024-10-06 14h54.24.235627 +0530
184,0,184,0,325.4528493,,325.4106297,10,3.6330874,325.4528493,325.4528493,0.0201596,326.7891179,[-0.020833333333333332],[0.3902777777777778],[1],[0],[0],,[],P2,1,2024-10-06_14h54.12.638,untitled,2024.1.5,None,2024-10-06 14h54.24.235627 +0530
185,0,185,0,326.8530127,,326.7937491,10,1.7932872,326.8530127,326.8530127,0.0335133,328.139414,[0.49444444444444446],[0.46111111111111114],[1],[0],[0],,['target'],P2,1,2024-10-06_14h54.12.638,untitled,2024.1.5,None,2024-10-06 14h54.24.235627 +0530
186,0,186,0,328.2034978,,328.1437283,10,1.325351,328.2034978,328.2034978,0.0380084,329.9226906,[-0.10138888888888889],[-0.0625],[1],[0],[0],,['target'],P2,1,2024-10-06_14h54.12.638,untitled,2024.1.5,None,2024-10-06 14h54.24.235627 +0530
187,0,187,0,329.952547,,329.9267254,10,2.5463605,329.952547,329.952547,0.0171085,331.1570001,[-0.44305555555555554],[-0.16527777777777777],[1],[0],[0],,['target'],P2,1,2024-10-06_14h54.12.638,untitled,2024.1.5,None,2024-10-06 14h54.24.235627 +0530
188,0,188,0,331.2032885,,331.161159,10,2.6653345,331.2032885,331.2032885,0.0216178,331.873082,[-0.44305555555555554],[-0.16527777777777777],[1],[0],[0],,['target'],P2,1,2024-10-06_14h54.12.638,untitled,2024.1.5,None,2024-10-06 14h54.24.235627 +0530
189,0,189,0,331.9194912,,331.8775687,10,1.5664608,331.9194912,331.9194912,0.0202004,333.5557376,[0.16944444444444445],[-0.38472222222222224],[1],[0],[0],,['target'],P2,1,2024-10-06_14h54.12.638,untitled,2024.1.5,None,2024-10-06 14h54.24.235627 +0530
190,0,190,0,333.6192792,,333.5599312,10,1.461923,333.6192792,333.6192792,0.0330795,334.9890949,[0.002777777777777778],[-0.2916666666666667],[1],[0],[0],,['target'],P2,1,2024-10-06_14h54.12.638,untitled,2024.1.5,None,2024-10-06 14h54.24.235627 +0530
191,0,191,0,335.019407,,334.9926133,10,1.7286856,335.019407,335.019407,0.0172704,338.0391418,[-0.325],[-0.3638888888888889],[1],[0],[0],,['target'],P2,1,2024-10-06_14h54.12.638,untitled,2024.1.5,None,2024-10-06 14h54.24.235627 +0530
192,0,192,0,338.0860232,,338.0438163,10,0.9560681,338.0860232,338.0860232,0.0198861,339.8894548,[-0.2638888888888889],[-0.06944444444444445],[1],[0],[0],,['target'],P2,1,2024-10-06_14h54.12.638,untitled,2024.1.5,None,2024-10-06 14h54.24.235627 +0530
193,0,193,0,339.9530823,,339.8940347,10,1.3123696,339.9530823,339.9530823,0.0349773,342.7881836,[0.3680555555555556],[-0.4305555555555556],[1],[0],[0],,['target'],P2,1,2024-10-06_14h54.12.638,untitled,2024.1.5,None,2024-10-06 14h54.24.235627 +0530
194,0,194,0,342.8189474,,342.7919849,10,1.7413227,342.8189474,342.8189474,0.017176,344.5567116,[0.011111111111111112],[-0.14722222222222223],[1],[0],[0],,['target'],P2,1,2024-10-06_14h54.12.638,untitled,2024.1.5,None,2024-10-06 14h54.24.235627 +0530
195,0,195,0,344.6189733,,344.5613881,10,1.3963716,344.6189733,344.6189733,0.0341575,345.4888372,[0.059722222222222225],[-0.1361111111111111],[1],[0],[0],,['target'],P2,1,2024-10-06_14h54.12.638,untitled,2024.1.5,None,2024-10-06 14h54.24.235627 +0530
196,0,196,0,345.668978,,345.492791,10,2.8597044,345.668978,345.668978,0.1532656,349.0557107,[0.425],[-0.2569444444444444],[1],[0],[0],,[],P2,1,2024-10-06_14h54.12.638,untitled,2024.1.5,None,2024-10-06 14h54.24.235627 +0530
197,0,197,0,349.1028369,,349.0624494,10,0.8937267,349.1028369,349.1028369,0.0207462,350.6731069,[-0.2652777777777778],[-0.4083333333333333],[1],[0],[0],,[],P2,1,2024-10-06_14h54.12.638,untitled,2024.1.5,None,2024-10-06 14h54.24.235627 +0530
198,0,198,0,350.7355338,,350.6772359,10,3.4101773,350.7355338,350.7355338,0.032242,352.5056595,[0.02361111111111111],[-0.06666666666666667],[1],[0],[0],,['target'],P2,1,2024-10-06_14h54.12.638,untitled,2024.1.5,None,2024-10-06 14h54.24.235627 +0530
199,0,199,0,352.5354952,,352.5094633,10,1.7965176,352.5354952,352.5354952,0.0179159,354.1570081,[0.45694444444444443],[-0.4597222222222222],[1],[0],[0],,['target'],P2,1,2024-10-06_14h54.12.638,untitled,2024.1.5,None,2024-10-06 14h54.24.235627 +0530
,,,,,,,,,,,,,,,,,,,,,,,,,,
,,,,,,,Mean RT5,1.53438978,,,,,,,,,,,,,,,,,,
,,,,,,,Mean RT10,1.980763684,,,,,,,,,,,,,,,,,,
,,,,,,,,,,,,,,,,,,,,,,,,,,
,,,,,,,Slope=,0.089274781,,,,,,,,,,,,,,,,,,
