trials.thisRepN,trials.thisTrialN,trials.thisN,trials.thisIndex,thisRow.t,notes,trial.started,num_distr,mouse.time,fixation.started,target.started,mouse.started,trial.stopped,mouse.x,mouse.y,mouse.leftButton,mouse.midButton,mouse.rightButton,,mouse.clicked_name,participant,session,date,expName,psychopyVersion,frameRate,expStart
0,0,0,0,0.0499466,,0.0191334,5,1.2579588,0.0499466,0.0499466,0.0344651,2.7844151,[-0.14444444444444443],[-0.1527777777777778],[1],[0],[0],,['target'],P3,1,2024-10-10_11h19.41.839,untitled,2024.1.5,None,2024-10-10 11h20.10.708007 +0530
1,0,1,0,2.816191,,2.7862944,5,1.4405926,2.816191,2.816191,0.0076837,4.0518942,[0.019444444444444445],[0.05416666666666667],[1],[0],[0],,['target'],P3,1,2024-10-10_11h19.41.839,untitled,2024.1.5,None,2024-10-10 11h20.10.708007 +0530
2,0,2,0,4.0829644,,4.0533616,5,1.5588501,4.0829644,4.0829644,0.0148191,5.6685548,[0.25972222222222224],[-0.20833333333333334],[1],[0],[0],,['target'],P3,1,2024-10-10_11h19.41.839,untitled,2024.1.5,None,2024-10-10 11h20.10.708007 +0530
3,0,3,0,5.6991878,,5.6701603,5,1.876455,5.6991878,5.6991878,0.0153637,6.9185085,[0.3402777777777778],[-0.0625],[1],[0],[0],,['target'],P3,1,2024-10-10_11h19.41.839,untitled,2024.1.5,None,2024-10-10 11h20.10.708007 +0530
4,0,4,0,6.9494282,,6.9199606,5,1.954629,6.9494282,6.9494282,0.0147961,8.8019477,[0.31527777777777777],[-0.42777777777777776],[1],[0],[0],,['target'],P3,1,2024-10-10_11h19.41.839,untitled,2024.1.5,None,2024-10-10 11h20.10.708007 +0530
5,0,5,0,8.8328157,,8.8034141,5,1.6228728,8.8328157,8.8328157,0.0077237,10.2518158,[0.4708333333333333],[-0.16527777777777777],[1],[0],[0],,['target'],P3,1,2024-10-10_11h19.41.839,untitled,2024.1.5,None,2024-10-10 11h20.10.708007 +0530
6,0,6,0,10.2829976,,10.2532897,5,2.4754145,10.2829976,10.2829976,0.0149204,12.670403,[-0.5097222222222222],[0.24444444444444444],[1],[0],[0],,['target'],P3,1,2024-10-10_11h19.41.839,untitled,2024.1.5,None,2024-10-10 11h20.10.708007 +0530
7,0,7,0,12.7333519,,12.6746903,5,2.0312995,12.7333519,12.7333519,0.0394563,15.2189946,[-0.40694444444444444],[-0.39305555555555555],[1],[0],[0],,['target'],P3,1,2024-10-10_11h19.41.839,untitled,2024.1.5,None,2024-10-10 11h20.10.708007 +0530
8,0,8,0,15.2662441,,15.2234766,5,1.3870725,15.2662441,15.2662441,0.0208427,16.8027514,[0.4444444444444444],[-0.15833333333333333],[1],[0],[0],,['target'],P3,1,2024-10-10_11h19.41.839,untitled,2024.1.5,None,2024-10-10 11h20.10.708007 +0530
9,0,9,0,16.8673798,,16.8074292,5,1.4080128,16.8673798,16.8673798,0.0362482,18.6019761,[0.17222222222222222],[-0.27361111111111114],[1],[0],[0],,['target'],P3,1,2024-10-10_11h19.41.839,untitled,2024.1.5,None,2024-10-10 11h20.10.708007 +0530
10,0,10,0,18.6829188,,18.6062823,5,1.6085517,18.6829188,18.6829188,0.0563904,20.7684037,[-0.41944444444444445],[-0.17083333333333334],[1],[0],[0],,['target'],P3,1,2024-10-10_11h19.41.839,untitled,2024.1.5,None,2024-10-10 11h20.10.708007 +0530
11,0,11,0,20.8154206,,20.773954,5,1.8330271,20.8154206,20.8154206,0.0194382,22.6696345,[-0.22777777777777777],[-0.18472222222222223],[1],[0],[0],,['target'],P3,1,2024-10-10_11h19.41.839,untitled,2024.1.5,None,2024-10-10 11h20.10.708007 +0530
12,0,12,0,22.7328909,,22.673922,5,1.4896144,22.7328909,22.7328909,0.0376007,24.9202945,[0.18194444444444444],[0.37083333333333335],[1],[0],[0],,['target'],P3,1,2024-10-10_11h19.41.839,untitled,2024.1.5,None,2024-10-10 11h20.10.708007 +0530
13,0,13,0,24.9833548,,24.9244199,5,1.4077388,24.9833548,24.9833548,0.0355542,26.4535885,[0.1361111111111111],[0.4125],[1],[0],[0],,['target'],P3,1,2024-10-10_11h19.41.839,untitled,2024.1.5,None,2024-10-10 11h20.10.708007 +0530
14,0,14,0,26.5163971,,26.4583307,5,1.692753,26.5163971,26.5163971,0.0407551,28.3695386,[-0.36527777777777776],[0.19027777777777777],[1],[0],[0],,['target'],P3,1,2024-10-10_11h19.41.839,untitled,2024.1.5,None,2024-10-10 11h20.10.708007 +0530
15,0,15,0,28.4160055,,28.3748111,5,2.5540467,28.4160055,28.4160055,0.0240953,30.3532534,[0.24722222222222223],[-0.041666666666666664],[1],[0],[0],,['target'],P3,1,2024-10-10_11h19.41.839,untitled,2024.1.5,None,2024-10-10 11h20.10.708007 +0530
16,0,16,0,30.3990559,,30.3589951,5,2.5233561,30.3990559,30.3990559,0.0220788,32.0039023,[0.3638888888888889],[0.375],[1],[0],[0],,['target'],P3,1,2024-10-10_11h19.41.839,untitled,2024.1.5,None,2024-10-10 11h20.10.708007 +0530
17,0,17,0,32.0835479,,32.0084673,5,2.1880326,32.0835479,32.0835479,0.0421287,33.7202256,[-0.09861111111111111],[-0.06527777777777778],[1],[0],[0],,['target'],P3,1,2024-10-10_11h19.41.839,untitled,2024.1.5,None,2024-10-10 11h20.10.708007 +0530
18,0,18,0,33.799278,,33.7280579,5,1.774343,33.799278,33.799278,0.0435474,35.5688121,[-0.14583333333333334],[-0.25277777777777777],[1],[0],[0],,['target'],P3,1,2024-10-10_11h19.41.839,untitled,2024.1.5,None,2024-10-10 11h20.10.708007 +0530
19,0,19,0,35.6158562,,35.5742499,5,2.1237235,35.6158562,35.6158562,0.0204923,38.0697549,[0.4875],[-0.3402777777777778],[1],[0],[0],,['target'],P3,1,2024-10-10_11h19.41.839,untitled,2024.1.5,None,2024-10-10 11h20.10.708007 +0530
20,0,20,0,38.1337022,,38.0740583,5,1.6559324,38.1337022,38.1337022,0.0421934,40.1018544,[-0.07361111111111111],[-0.04861111111111111],[1],[0],[0],,['target'],P3,1,2024-10-10_11h19.41.839,untitled,2024.1.5,None,2024-10-10 11h20.10.708007 +0530
21,0,21,0,40.1495924,,40.1047914,5,1.7744114,40.1495924,40.1495924,0.0174983,42.1535636,[-0.19583333333333333],[0.3541666666666667],[1],[0],[0],,['target'],P3,1,2024-10-10_11h19.41.839,untitled,2024.1.5,None,2024-10-10 11h20.10.708007 +0530
22,0,22,0,42.1991756,,42.1580106,5,1.8402621,42.1991756,42.1991756,0.0252509,43.5702666,[-0.24305555555555555],[0.27361111111111114],[1],[0],[0],,['target'],P3,1,2024-10-10_11h19.41.839,untitled,2024.1.5,None,2024-10-10 11h20.10.708007 +0530
23,0,23,0,43.6174438,,43.5742376,5,1.6407093,43.6174438,43.6174438,0.0220338,45.0042745,[0.26666666666666666],[-0.1125],[1],[0],[0],,['target'],P3,1,2024-10-10_11h19.41.839,untitled,2024.1.5,None,2024-10-10 11h20.10.708007 +0530
24,0,24,0,45.0828694,,45.008485,5,1.6232897,45.0828694,45.0828694,0.0497347,46.8188824,[0.3194444444444444],[-0.12222222222222222],[1],[0],[0],,['target'],P3,1,2024-10-10_11h19.41.839,untitled,2024.1.5,None,2024-10-10 11h20.10.708007 +0530
25,0,25,0,46.8661441,,46.8234141,5,1.856338,46.8661441,46.8661441,0.0225826,48.4542673,[-0.044444444444444446],[-0.2708333333333333],[1],[0],[0],,['target'],P3,1,2024-10-10_11h19.41.839,untitled,2024.1.5,None,2024-10-10 11h20.10.708007 +0530
26,0,26,0,48.5160081,,48.4620768,5,3.0232545,48.5160081,48.5160081,0.0258614,50.3200604,[0.32916666666666666],[0.45416666666666666],[1],[0],[0],,['target'],P3,1,2024-10-10_11h19.41.839,untitled,2024.1.5,None,2024-10-10 11h20.10.708007 +0530
27,0,27,0,50.3826311,,50.324532,5,2.0953253,50.3826311,50.3826311,0.0425663,55.1192182,[-0.22916666666666666],[0.002777777777777778],[1],[0],[0],,['target'],P3,1,2024-10-10_11h19.41.839,untitled,2024.1.5,None,2024-10-10 11h20.10.708007 +0530
28,0,28,0,55.1996449,,55.1237014,5,1.905914,55.1996449,55.1996449,0.0464039,56.5188517,[-0.05138888888888889],[0.025],[1],[0],[0],,['target'],P3,1,2024-10-10_11h19.41.839,untitled,2024.1.5,None,2024-10-10 11h20.10.708007 +0530
29,0,29,0,56.5818155,,56.5235434,5,1.4931541,56.5818155,56.5818155,0.0373054,58.6358293,[0.3388888888888889],[-0.35],[1],[0],[0],,['target'],P3,1,2024-10-10_11h19.41.839,untitled,2024.1.5,None,2024-10-10 11h20.10.708007 +0530
30,0,30,0,58.6825766,,58.6403374,5,1.6725798,58.6825766,58.6825766,0.0243139,60.1541633,[0.275],[-0.14722222222222223],[1],[0],[0],,['target'],P3,1,2024-10-10_11h19.41.839,untitled,2024.1.5,None,2024-10-10 11h20.10.708007 +0530
31,0,31,0,60.2323169,,60.1588005,5,1.7630095,60.2323169,60.2323169,0.0425353,61.9366883,[0.36527777777777776],[-0.46805555555555556],[1],[0],[0],,['target'],P3,1,2024-10-10_11h19.41.839,untitled,2024.1.5,None,2024-10-10 11h20.10.708007 +0530
32,0,32,0,61.9991149,,61.9413497,5,1.4266678,61.9991149,61.9991149,0.0396409,63.9203731,[-0.09444444444444444],[-0.07361111111111111],[1],[0],[0],,['target'],P3,1,2024-10-10_11h19.41.839,untitled,2024.1.5,None,2024-10-10 11h20.10.708007 +0530
33,0,33,0,64.0030759,,63.9247111,5,1.5422294,64.0030759,64.0030759,0.0434757,65.8362493,[-0.4930555555555556],[0.4305555555555556],[0],[0],[1],,['target'],P3,1,2024-10-10_11h19.41.839,untitled,2024.1.5,None,2024-10-10 11h20.10.708007 +0530
34,0,34,0,65.883081,,65.8404481,5,1.5540085,65.883081,65.883081,0.0225391,67.2705664,[0.4263888888888889],[0.3138888888888889],[1],[0],[0],,['target'],P3,1,2024-10-10_11h19.41.839,untitled,2024.1.5,None,2024-10-10 11h20.10.708007 +0530
35,0,35,0,67.3489663,,67.2783925,5,1.5868805,67.3489663,67.3489663,0.0410291,69.2834489,[-0.15],[-0.07777777777777778],[1],[0],[0],,['target'],P3,1,2024-10-10_11h19.41.839,untitled,2024.1.5,None,2024-10-10 11h20.10.708007 +0530
36,0,36,0,69.3320097,,69.2876879,5,1.4563729,69.3320097,69.3320097,0.0223619,71.0026067,[-0.011111111111111112],[-0.08333333333333333],[1],[0],[0],,['target'],P3,1,2024-10-10_11h19.41.839,untitled,2024.1.5,None,2024-10-10 11h20.10.708007 +0530
37,0,37,0,71.0655168,,71.007913,5,2.8860312,71.0655168,71.0655168,0.0405762,73.0015423,[0.15694444444444444],[-0.4111111111111111],[1],[0],[0],,['target'],P3,1,2024-10-10_11h19.41.839,untitled,2024.1.5,None,2024-10-10 11h20.10.708007 +0530
38,0,38,0,73.0650388,,73.0083393,5,1.8074213,73.0650388,73.0650388,0.038596,74.8686273,[0.47638888888888886],[-0.10555555555555556],[1],[0],[0],,['target'],P3,1,2024-10-10_11h19.41.839,untitled,2024.1.5,None,2024-10-10 11h20.10.708007 +0530
39,0,39,0,74.9325214,,74.8728833,5,1.7588569,74.9325214,74.9325214,0.036836,76.3693519,[-0.19027777777777777],[0.1],[1],[0],[0],,['target'],P3,1,2024-10-10_11h19.41.839,untitled,2024.1.5,None,2024-10-10 11h20.10.708007 +0530
40,0,40,0,76.4484996,,76.3761605,5,1.8952055,76.4484996,76.4484996,0.0506011,78.7527059,[0.08611111111111111],[0.4388888888888889],[1],[0],[0],,['target'],P3,1,2024-10-10_11h19.41.839,untitled,2024.1.5,None,2024-10-10 11h20.10.708007 +0530
41,0,41,0,78.8149194,,78.7569777,5,2.657524,78.8149194,78.8149194,0.0394119,80.650195,[0.034722222222222224],[0.05555555555555555],[1],[0],[0],,['target'],P3,1,2024-10-10_11h19.41.839,untitled,2024.1.5,None,2024-10-10 11h20.10.708007 +0530
42,0,42,0,80.7150384,,80.654921,5,1.6865425,80.7150384,80.7150384,0.0368449,82.786094,[-0.3902777777777778],[0.40555555555555556],[1],[0],[0],,['target'],P3,1,2024-10-10_11h19.41.839,untitled,2024.1.5,None,2024-10-10 11h20.10.708007 +0530
43,0,43,0,82.8653685,,82.7912437,5,1.8025631,82.8653685,82.8653685,0.0397969,85.2684632,[-0.24166666666666667],[-0.3333333333333333],[1],[0],[0],,['target'],P3,1,2024-10-10_11h19.41.839,untitled,2024.1.5,None,2024-10-10 11h20.10.708007 +0530
44,0,44,0,85.315262,,85.2749101,5,1.6617011,85.315262,85.315262,0.024543,87.8528285,[-0.42777777777777776],[0.14166666666666666],[1],[0],[0],,['target'],P3,1,2024-10-10_11h19.41.839,untitled,2024.1.5,None,2024-10-10 11h20.10.708007 +0530
45,0,45,0,87.8986597,,87.8573163,5,1.4742507,87.8986597,87.8986597,0.0218972,90.4026143,[-0.001388888888888889],[-0.20555555555555555],[1],[0],[0],,['target'],P3,1,2024-10-10_11h19.41.839,untitled,2024.1.5,None,2024-10-10 11h20.10.708007 +0530
46,0,46,0,90.4484997,,90.4071157,5,1.5383827,90.4484997,90.4484997,0.0230367,92.6181489,[0.19583333333333333],[-0.018055555555555554],[1],[0],[0],,['target'],P3,1,2024-10-10_11h19.41.839,untitled,2024.1.5,None,2024-10-10 11h20.10.708007 +0530
47,0,47,0,92.6987746,,92.6244848,5,1.4060002,92.6987746,92.6987746,0.0417299,94.5526414,[-0.4013888888888889],[-0.075],[1],[0],[0],,['target'],P3,1,2024-10-10_11h19.41.839,untitled,2024.1.5,None,2024-10-10 11h20.10.708007 +0530
48,0,48,0,94.6153168,,94.5569233,5,1.6429247,94.6153168,94.6153168,0.037888,96.9185655,[0.26805555555555555],[0.4583333333333333],[1],[0],[0],,['target'],P3,1,2024-10-10_11h19.41.839,untitled,2024.1.5,None,2024-10-10 11h20.10.708007 +0530
49,0,49,0,96.9813678,,96.9236359,5,1.6929757,96.9813678,96.9813678,0.0351465,100.6351939,[0.4305555555555556],[0.4513888888888889],[1],[0],[0],,['target'],P3,1,2024-10-10_11h19.41.839,untitled,2024.1.5,None,2024-10-10 11h20.10.708007 +0530
50,0,50,0,100.7145251,,100.6392987,5,1.6674093,100.7145251,100.7145251,0.0546629,102.7865669,[-0.016666666666666666],[0.21805555555555556],[1],[0],[0],,['target'],P3,1,2024-10-10_11h19.41.839,untitled,2024.1.5,None,2024-10-10 11h20.10.708007 +0530
51,0,51,0,102.8321947,,102.7907336,5,1.5570754,102.8321947,102.8321947,0.0213782,104.5862407,[0.43333333333333335],[-0.4486111111111111],[1],[0],[0],,['target'],P3,1,2024-10-10_11h19.41.839,untitled,2024.1.5,None,2024-10-10 11h20.10.708007 +0530
52,0,52,0,104.648167,,104.5904163,5,1.7388066,104.648167,104.648167,0.0361134,106.135994,[-0.41805555555555557],[0.4097222222222222],[1],[0],[0],,['target'],P3,1,2024-10-10_11h19.41.839,untitled,2024.1.5,None,2024-10-10 11h20.10.708007 +0530
53,0,53,0,106.1822418,,106.1402575,5,1.8962059,106.1822418,106.1822418,0.0225937,108.2863668,[-0.4486111111111111],[0.09166666666666666],[1],[0],[0],,['target'],P3,1,2024-10-10_11h19.41.839,untitled,2024.1.5,None,2024-10-10 11h20.10.708007 +0530
54,0,54,0,108.3315558,,108.2911225,5,1.5742905,108.3315558,108.3315558,0.0220574,109.9691444,[0.4486111111111111],[-0.4236111111111111],[1],[0],[0],,['target'],P3,1,2024-10-10_11h19.41.839,untitled,2024.1.5,None,2024-10-10 11h20.10.708007 +0530
55,0,55,0,110.0316276,,109.9736213,5,1.6551425,110.0316276,110.0316276,0.0394357,111.5676441,[0.17083333333333334],[-0.16111111111111112],[1],[0],[0],,['target'],P3,1,2024-10-10_11h19.41.839,untitled,2024.1.5,None,2024-10-10 11h20.10.708007 +0530
56,0,56,0,111.6313352,,111.5720959,5,1.7586512,111.6313352,111.6313352,0.0377212,113.5518697,[-0.48333333333333334],[-0.2777777777777778],[1],[0],[0],,['target'],P3,1,2024-10-10_11h19.41.839,untitled,2024.1.5,None,2024-10-10 11h20.10.708007 +0530
57,0,57,0,113.5984838,,113.5561961,5,3.1256804,113.5984838,113.5984838,0.0222993,115.3530369,[-0.4888888888888889],[0.08888888888888889],[1],[0],[0],,['target'],P3,1,2024-10-10_11h19.41.839,untitled,2024.1.5,None,2024-10-10 11h20.10.708007 +0530
58,0,58,0,115.4144007,,115.357166,5,1.3717342,115.4144007,115.4144007,0.039997,117.0525561,[0.15555555555555556],[0.24444444444444444],[1],[0],[0],,['target'],P3,1,2024-10-10_11h19.41.839,untitled,2024.1.5,None,2024-10-10 11h20.10.708007 +0530
59,0,59,0,117.0981667,,117.0566612,5,2.2088667,117.0981667,117.0981667,0.0222078,118.9190108,[0.30416666666666664],[-0.08055555555555556],[1],[0],[0],,['target'],P3,1,2024-10-10_11h19.41.839,untitled,2024.1.5,None,2024-10-10 11h20.10.708007 +0530
60,0,60,0,118.9651902,,118.9231985,5,1.2550779,118.9651902,118.9651902,0.0225737,120.5863489,[0.37916666666666665],[0.1875],[1],[0],[0],,['target'],P3,1,2024-10-10_11h19.41.839,untitled,2024.1.5,None,2024-10-10 11h20.10.708007 +0530
61,0,61,0,120.6314685,,120.5908018,5,1.8244844,120.6314685,120.6314685,0.0219294,122.2361108,[0.3402777777777778],[-0.40555555555555556],[1],[0],[0],,['target'],P3,1,2024-10-10_11h19.41.839,untitled,2024.1.5,None,2024-10-10 11h20.10.708007 +0530
62,0,62,0,122.281703,,122.2405103,5,1.6575331,122.281703,122.281703,0.0229915,124.1197226,[-0.2263888888888889],[0.016666666666666666],[1],[0],[0],,['target'],P3,1,2024-10-10_11h19.41.839,untitled,2024.1.5,None,2024-10-10 11h20.10.708007 +0530
63,0,63,0,124.1644054,,124.1240422,5,2.5068918,124.1644054,124.1644054,0.0214334,127.1687235,[-0.05],[0.4708333333333333],[1],[0],[0],,['target'],P3,1,2024-10-10_11h19.41.839,untitled,2024.1.5,None,2024-10-10 11h20.10.708007 +0530
64,0,64,0,127.2313262,,127.173111,5,1.7565254,127.2313262,127.2313262,0.0390726,131.268119,[-0.16666666666666666],[-0.34305555555555556],[1],[0],[0],,['target'],P3,1,2024-10-10_11h19.41.839,untitled,2024.1.5,None,2024-10-10 11h20.10.708007 +0530
65,0,65,0,131.3170446,,131.2723828,5,1.6894353,131.3170446,131.3170446,0.0176326,133.3855361,[0.21805555555555556],[0.3625],[1],[0],[0],,['target'],P3,1,2024-10-10_11h19.41.839,untitled,2024.1.5,None,2024-10-10 11h20.10.708007 +0530
66,0,66,0,133.4314402,,133.3898355,5,1.5407262,133.4314402,133.4314402,0.0225346,135.3184118,[0.009722222222222222],[0.4305555555555556],[1],[0],[0],,['target'],P3,1,2024-10-10_11h19.41.839,untitled,2024.1.5,None,2024-10-10 11h20.10.708007 +0530
67,0,67,0,135.3811558,,135.3225763,5,2.2427652,135.3811558,135.3811558,0.0405506,138.5208988,[0.23055555555555557],[0.45694444444444443],[1],[0],[0],,['target'],P3,1,2024-10-10_11h19.41.839,untitled,2024.1.5,None,2024-10-10 11h20.10.708007 +0530
68,0,68,0,138.5977967,,138.5252268,5,1.5302936,138.5977967,138.5977967,0.0405912,141.0347546,[-0.1736111111111111],[0.3736111111111111],[1],[0],[0],,['target'],P3,1,2024-10-10_11h19.41.839,untitled,2024.1.5,None,2024-10-10 11h20.10.708007 +0530
69,0,69,0,141.1147578,,141.0388689,5,1.5250999,141.1147578,141.1147578,0.0447061,143.2013981,[-0.1597222222222222],[-0.10416666666666667],[1],[0],[0],,['target'],P3,1,2024-10-10_11h19.41.839,untitled,2024.1.5,None,2024-10-10 11h20.10.708007 +0530
70,0,70,0,143.2482689,,143.2056941,5,1.8113408,143.2482689,143.2482689,0.0205652,144.7192441,[0.3111111111111111],[0.33194444444444443],[1],[0],[0],,['target'],P3,1,2024-10-10_11h19.41.839,untitled,2024.1.5,None,2024-10-10 11h20.10.708007 +0530
71,0,71,0,144.7804955,,144.7234891,5,1.7562318,144.7804955,144.7804955,0.040422,146.0012757,[0.13333333333333333],[0.12361111111111112],[1],[0],[0],,['target'],P3,1,2024-10-10_11h19.41.839,untitled,2024.1.5,None,2024-10-10 11h20.10.708007 +0530
72,0,72,0,146.0480943,,146.0055816,5,1.4870993,146.0480943,146.0480943,0.0239539,147.7018906,[-0.38472222222222224],[-0.3902777777777778],[1],[0],[0],,['target'],P3,1,2024-10-10_11h19.41.839,untitled,2024.1.5,None,2024-10-10 11h20.10.708007 +0530
73,0,73,0,147.7810645,,147.7073449,5,1.4764872,147.7810645,147.7810645,0.0502144,149.5154839,[0.44583333333333336],[-0.31666666666666665],[1],[0],[0],,['target'],P3,1,2024-10-10_11h19.41.839,untitled,2024.1.5,None,2024-10-10 11h20.10.708007 +0530
74,0,74,0,149.5658859,,149.5184987,5,2.7560624,149.5658859,149.5658859,0.0274406,151.4827052,[-0.14444444444444443],[0.42083333333333334],[1],[0],[0],,['target'],P3,1,2024-10-10_11h19.41.839,untitled,2024.1.5,None,2024-10-10 11h20.10.708007 +0530
75,0,75,0,151.5168043,,151.4880196,5,1.7904734,151.5168043,151.5168043,0.0171402,153.2675208,[-0.3763888888888889],[-0.22083333333333333],[1],[0],[0],,['target'],P3,1,2024-10-10_11h19.41.839,untitled,2024.1.5,None,2024-10-10 11h20.10.708007 +0530
76,0,76,0,153.3137245,,153.2728801,5,2.4815522,153.3137245,153.3137245,0.0194899,154.7188229,[0.030555555555555555],[-0.07361111111111111],[1],[0],[0],,['target'],P3,1,2024-10-10_11h19.41.839,untitled,2024.1.5,None,2024-10-10 11h20.10.708007 +0530
77,0,77,0,154.7977398,,154.7230139,5,1.808058,154.7977398,154.7977398,0.0411451,159.5164553,[0.47638888888888886],[-0.08333333333333333],[1],[0],[0],,['target'],P3,1,2024-10-10_11h19.41.839,untitled,2024.1.5,None,2024-10-10 11h20.10.708007 +0530
78,0,78,0,159.5642098,,159.5215283,5,1.5745387,159.5642098,159.5642098,0.0215746,161.08516,[-0.19305555555555556],[0.17916666666666667],[1],[0],[0],,['target'],P3,1,2024-10-10_11h19.41.839,untitled,2024.1.5,None,2024-10-10 11h20.10.708007 +0530
79,0,79,0,161.1469966,,161.0893702,5,1.9776792,161.1469966,161.1469966,0.039728,162.8516543,[-0.20694444444444443],[0.2125],[1],[0],[0],,['target'],P3,1,2024-10-10_11h19.41.839,untitled,2024.1.5,None,2024-10-10 11h20.10.708007 +0530
80,0,80,0,162.8977646,,162.8558832,5,1.9561054,162.8977646,162.8977646,0.0254636,164.4353617,[0.07222222222222222],[-0.004166666666666667],[1],[0],[0],,['target'],P3,1,2024-10-10_11h19.41.839,untitled,2024.1.5,None,2024-10-10 11h20.10.708007 +0530
81,0,81,0,164.4807027,,164.4397931,5,1.597875,164.4807027,164.4807027,0.0243343,166.0509515,[0.39305555555555555],[-0.36944444444444446],[1],[0],[0],,['target'],P3,1,2024-10-10_11h19.41.839,untitled,2024.1.5,None,2024-10-10 11h20.10.708007 +0530
82,0,82,0,166.1140747,,166.0554821,5,1.6044944,166.1140747,166.1140747,0.0420832,167.7339826,[-0.09861111111111111],[-0.19027777777777777],[1],[0],[0],,['target'],P3,1,2024-10-10_11h19.41.839,untitled,2024.1.5,None,2024-10-10 11h20.10.708007 +0530
83,0,83,0,167.7806371,,167.7384813,5,1.9380353,167.7806371,167.7806371,0.0241083,169.2191905,[-0.28194444444444444],[0.15],[1],[0],[0],,['target'],P3,1,2024-10-10_11h19.41.839,untitled,2024.1.5,None,2024-10-10 11h20.10.708007 +0530
84,0,84,0,169.2640679,,169.2239044,5,1.650014,169.2640679,169.2640679,0.0234327,172.1333139,[0.3375],[0.4722222222222222],[1],[0],[0],,['target'],P3,1,2024-10-10_11h19.41.839,untitled,2024.1.5,None,2024-10-10 11h20.10.708007 +0530
85,0,85,0,172.180764,,172.1375931,5,1.4361441,172.180764,172.180764,0.0228378,173.9676005,[0.375],[-0.44583333333333336],[1],[0],[0],,['target'],P3,1,2024-10-10_11h19.41.839,untitled,2024.1.5,None,2024-10-10 11h20.10.708007 +0530
86,0,86,0,174.0300178,,173.9733676,5,1.5571311,174.0300178,174.0300178,0.0406849,175.3168043,[0.39166666666666666],[-0.02638888888888889],[1],[0],[0],,['target'],P3,1,2024-10-10_11h19.41.839,untitled,2024.1.5,None,2024-10-10 11h20.10.708007 +0530
87,0,87,0,175.3798549,,175.3217188,5,0.2381539,175.3798549,175.3798549,0.035625,177.2832278,[-0.37916666666666665],[-0.4097222222222222],[1],[0],[0],,['target'],P3,1,2024-10-10_11h19.41.839,untitled,2024.1.5,None,2024-10-10 11h20.10.708007 +0530
88,0,88,0,177.3473671,,177.2864343,5,1.408995,177.3473671,177.3473671,0.0378764,179.5003903,[-0.34444444444444444],[0.08888888888888889],[1],[0],[0],,['target'],P3,1,2024-10-10_11h19.41.839,untitled,2024.1.5,None,2024-10-10 11h20.10.708007 +0530
89,0,89,0,179.5469753,,179.5045704,5,1.4270567,179.5469753,179.5469753,0.0221868,181.2855688,[-0.12361111111111112],[-0.325],[1],[0],[0],,['target'],P3,1,2024-10-10_11h19.41.839,untitled,2024.1.5,None,2024-10-10 11h20.10.708007 +0530
90,0,90,0,181.3464086,,181.2898456,5,1.8880172,181.3464086,181.3464086,0.0356191,183.4511329,[-0.28888888888888886],[0.3958333333333333],[1],[0],[0],,['target'],P3,1,2024-10-10_11h19.41.839,untitled,2024.1.5,None,2024-10-10 11h20.10.708007 +0530
91,0,91,0,183.5142749,,183.455666,5,2.6866359,183.5142749,183.5142749,0.0402861,185.4330616,[-0.19305555555555556],[-0.16805555555555557],[1],[0],[0],,['target'],P3,1,2024-10-10_11h19.41.839,untitled,2024.1.5,None,2024-10-10 11h20.10.708007 +0530
92,0,92,0,185.4829296,,185.4368808,5,1.3529513,185.4829296,185.4829296,0.0190761,187.351207,[-0.08611111111111111],[0.4708333333333333],[1],[0],[0],,['target'],P3,1,2024-10-10_11h19.41.839,untitled,2024.1.5,None,2024-10-10 11h20.10.708007 +0530
93,0,93,0,187.4136533,,187.3556508,5,1.5089977,187.4136533,187.4136533,0.0369513,190.967562,[-0.3347222222222222],[-0.38472222222222224],[1],[0],[0],,['target'],P3,1,2024-10-10_11h19.41.839,untitled,2024.1.5,None,2024-10-10 11h20.10.708007 +0530
94,0,94,0,191.0314823,,190.9718087,5,2.454336,191.0314823,191.0314823,0.0400854,192.5171704,[0.18194444444444444],[0.020833333333333332],[1],[0],[0],,['target'],P3,1,2024-10-10_11h19.41.839,untitled,2024.1.5,None,2024-10-10 11h20.10.708007 +0530
95,0,95,0,192.5639214,,192.5213854,10,2.7491491,192.5639214,192.5639214,0.0234635,195.2023277,[-0.2763888888888889],[0.3333333333333333],[1],[0],[0],,['target'],P3,1,2024-10-10_11h19.41.839,untitled,2024.1.5,None,2024-10-10 11h20.10.708007 +0530
96,0,96,0,195.2465899,,195.2064892,10,1.6002237,195.2465899,195.2465899,0.0254266,196.9186506,[-0.19166666666666668],[-0.39444444444444443],[1],[0],[0],,['target'],P3,1,2024-10-10_11h19.41.839,untitled,2024.1.5,None,2024-10-10 11h20.10.708007 +0530
97,0,97,0,196.9798812,,196.9230722,10,1.2328607,196.9798812,196.9798812,0.0380647,198.4506027,[-0.24861111111111112],[0.016666666666666666],[1],[0],[0],,['target'],P3,1,2024-10-10_11h19.41.839,untitled,2024.1.5,None,2024-10-10 11h20.10.708007 +0530
98,0,98,0,198.5135474,,198.4550716,10,1.867082,198.5135474,198.5135474,0.0265802,200.2840775,[-0.44722222222222224],[-0.3125],[1],[0],[0],,['target'],P3,1,2024-10-10_11h19.41.839,untitled,2024.1.5,None,2024-10-10 11h20.10.708007 +0530
99,0,99,0,200.3462098,,200.2885156,10,2.4013542,200.3462098,200.3462098,0.0373834,204.0661869,[-0.2152777777777778],[0.2013888888888889],[1],[0],[0],,['target'],P3,1,2024-10-10_11h19.41.839,untitled,2024.1.5,None,2024-10-10 11h20.10.708007 +0530
100,0,100,0,204.1129441,,204.0700756,10,2.5049764,204.1129441,204.1129441,0.0187831,205.7507127,[-0.10972222222222222],[-0.35138888888888886],[1],[0],[0],,['target'],P3,1,2024-10-10_11h19.41.839,untitled,2024.1.5,None,2024-10-10 11h20.10.708007 +0530
101,0,101,0,205.7973027,,205.754837,10,1.7581752,205.7973027,205.7973027,0.0220122,207.2511222,[-0.21944444444444444],[-0.32916666666666666],[1],[0],[0],,['target'],P3,1,2024-10-10_11h19.41.839,untitled,2024.1.5,None,2024-10-10 11h20.10.708007 +0530
102,0,102,0,207.2967807,,207.2555148,10,2.1061304,207.2967807,207.2967807,0.0241362,208.817947,[-0.16805555555555557],[0.14027777777777778],[1],[0],[0],,['target'],P3,1,2024-10-10_11h19.41.839,untitled,2024.1.5,None,2024-10-10 11h20.10.708007 +0530
103,0,103,0,208.8640304,,208.8222721,10,2.208698,208.8640304,208.8640304,0.0238505,210.2521272,[0.027777777777777776],[-0.36666666666666664],[1],[0],[0],,['target'],P3,1,2024-10-10_11h19.41.839,untitled,2024.1.5,None,2024-10-10 11h20.10.708007 +0530
104,0,104,0,210.3130855,,210.256516,10,1.4936647,210.3130855,210.3130855,0.0370643,213.0168322,[-0.034722222222222224],[-0.058333333333333334],[1],[0],[0],,['target'],P3,1,2024-10-10_11h19.41.839,untitled,2024.1.5,None,2024-10-10 11h20.10.708007 +0530
105,0,105,0,213.083157,,213.020894,10,1.8709574,213.083157,213.083157,0.0409971,214.5669715,[0.42083333333333334],[-0.26944444444444443],[1],[0],[0],,['target'],P3,1,2024-10-10_11h19.41.839,untitled,2024.1.5,None,2024-10-10 11h20.10.708007 +0530
106,0,106,0,214.6474924,,214.5715873,10,1.6696427,214.6474924,214.6474924,0.0419248,216.5666609,[0.43472222222222223],[0.2388888888888889],[1],[0],[0],,['target'],P3,1,2024-10-10_11h19.41.839,untitled,2024.1.5,None,2024-10-10 11h20.10.708007 +0530
107,0,107,0,216.6131903,,216.5710236,10,1.7984092,216.6131903,216.6131903,0.0202155,218.2341231,[0.13472222222222222],[0.13194444444444445],[1],[0],[0],,['target'],P3,1,2024-10-10_11h19.41.839,untitled,2024.1.5,None,2024-10-10 11h20.10.708007 +0530
108,0,108,0,218.3150377,,218.2385757,10,1.9859439,218.3150377,218.3150377,0.0399628,219.900532,[-0.2763888888888889],[-0.0875],[1],[0],[0],,['target'],P3,1,2024-10-10_11h19.41.839,untitled,2024.1.5,None,2024-10-10 11h20.10.708007 +0530
109,0,109,0,219.9803262,,219.9052081,10,1.7608431,219.9803262,219.9803262,0.0397554,221.6666811,[0.025],[-0.05277777777777778],[1],[0],[0],,['target'],P3,1,2024-10-10_11h19.41.839,untitled,2024.1.5,None,2024-10-10 11h20.10.708007 +0530
110,0,110,0,221.7472359,,221.6711718,10,4.7520369,221.7472359,221.7472359,0.0420124,223.6336771,[0.05],[-0.45555555555555555],[1],[0],[0],,['target'],P3,1,2024-10-10_11h19.41.839,untitled,2024.1.5,None,2024-10-10 11h20.10.708007 +0530
111,0,111,0,223.7131978,,223.6380252,10,1.3489257,223.7131978,223.7131978,0.0436472,225.7351228,[0.1875],[-0.3138888888888889],[1],[0],[0],,['target'],P3,1,2024-10-10_11h19.41.839,untitled,2024.1.5,None,2024-10-10 11h20.10.708007 +0530
112,0,112,0,225.813458,,225.7392809,10,2.0750318,225.813458,225.813458,0.0437721,228.2328616,[-0.4930555555555556],[-0.42083333333333334],[1],[0],[0],,['target'],P3,1,2024-10-10_11h19.41.839,untitled,2024.1.5,None,2024-10-10 11h20.10.708007 +0530
113,0,113,0,228.279752,,228.2379098,10,1.7354993,228.279752,228.279752,0.0206696,229.9519352,[-0.49027777777777776],[0.23194444444444445],[1],[0],[0],,['target'],P3,1,2024-10-10_11h19.41.839,untitled,2024.1.5,None,2024-10-10 11h20.10.708007 +0530
114,0,114,0,229.9971332,,229.9564822,10,1.9392132,229.9971332,229.9971332,0.026123,231.6502991,[-0.18333333333333332],[-0.22916666666666666],[1],[0],[0],,['target'],P3,1,2024-10-10_11h19.41.839,untitled,2024.1.5,None,2024-10-10 11h20.10.708007 +0530
115,0,115,0,231.7124606,,231.6546781,10,1.8683094,231.7124606,231.7124606,0.0381808,233.2995218,[-0.36944444444444446],[-0.19722222222222222],[1],[0],[0],,['target'],P3,1,2024-10-10_11h19.41.839,untitled,2024.1.5,None,2024-10-10 11h20.10.708007 +0530
116,0,116,0,233.3464403,,233.3036161,10,1.9651948,233.3464403,233.3464403,0.0229705,234.8835584,[-0.4847222222222222],[0.05555555555555555],[1],[0],[0],,['target'],P3,1,2024-10-10_11h19.41.839,untitled,2024.1.5,None,2024-10-10 11h20.10.708007 +0530
117,0,117,0,234.92973,,234.8876537,10,1.9532908,234.92973,234.92973,0.0230625,236.6493393,[0.46944444444444444],[-0.13333333333333333],[1],[0],[0],,['target'],P3,1,2024-10-10_11h19.41.839,untitled,2024.1.5,None,2024-10-10 11h20.10.708007 +0530
118,0,118,0,236.6967846,,236.6536874,10,1.8221879,236.6967846,236.6967846,0.0175114,238.5673094,[0.4444444444444444],[0.14722222222222223],[1],[0],[0],,['target'],P3,1,2024-10-10_11h19.41.839,untitled,2024.1.5,None,2024-10-10 11h20.10.708007 +0530
119,0,119,0,238.6132646,,238.5714945,10,1.4595684,238.6132646,238.6132646,0.0214783,240.1671993,[-0.19027777777777777],[0.175],[1],[0],[0],,['target'],P3,1,2024-10-10_11h19.41.839,untitled,2024.1.5,None,2024-10-10 11h20.10.708007 +0530
120,0,120,0,240.2131251,,240.1714548,10,2.3269138,240.2131251,240.2131251,0.0231401,241.8496191,[0.4527777777777778],[-0.13333333333333333],[1],[0],[0],,['target'],P3,1,2024-10-10_11h19.41.839,untitled,2024.1.5,None,2024-10-10 11h20.10.708007 +0530
121,0,121,0,241.8966358,,241.8539659,10,1.8541916,241.8966358,241.8966358,0.0214398,243.6339253,[0.25972222222222224],[-0.3333333333333333],[1],[0],[0],,['target'],P3,1,2024-10-10_11h19.41.839,untitled,2024.1.5,None,2024-10-10 11h20.10.708007 +0530
122,0,122,0,243.6962437,,243.6381343,10,2.0946372,243.6962437,243.6962437,0.0402255,245.4828369,[-0.28194444444444444],[-0.43333333333333335],[1],[0],[0],,['target'],P3,1,2024-10-10_11h19.41.839,untitled,2024.1.5,None,2024-10-10 11h20.10.708007 +0530
123,0,123,0,245.5292188,,245.4874059,10,2.4375329,245.5292188,245.5292188,0.0208385,248.6339092,[0.3402777777777778],[-0.32222222222222224],[1],[0],[0],,['target'],P3,1,2024-10-10_11h19.41.839,untitled,2024.1.5,None,2024-10-10 11h20.10.708007 +0530
124,0,124,0,248.6795469,,248.6382887,10,1.8864814,248.6795469,248.6795469,0.0228798,250.0326056,[-0.09305555555555556],[-0.12083333333333333],[1],[0],[0],,['target'],P3,1,2024-10-10_11h19.41.839,untitled,2024.1.5,None,2024-10-10 11h20.10.708007 +0530
125,0,125,0,250.0793512,,250.0372744,10,2.3239972,250.0793512,250.0793512,0.0204927,252.2661699,[0.2638888888888889],[-0.004166666666666667],[1],[0],[0],,['target'],P3,1,2024-10-10_11h19.41.839,untitled,2024.1.5,None,2024-10-10 11h20.10.708007 +0530
126,0,126,0,252.3124804,,252.2702292,10,3.6762742,252.3124804,252.3124804,0.0244153,253.5498496,[0.3111111111111111],[-0.04722222222222222],[1],[0],[0],,['target'],P3,1,2024-10-10_11h19.41.839,untitled,2024.1.5,None,2024-10-10 11h20.10.708007 +0530
127,0,127,0,253.5960097,,253.5542086,10,2.0926535,253.5960097,253.5960097,0.0216414,255.4001548,[-0.3277777777777778],[-0.3486111111111111],[1],[0],[0],,['target'],P3,1,2024-10-10_11h19.41.839,untitled,2024.1.5,None,2024-10-10 11h20.10.708007 +0530
128,0,128,0,255.4797531,,255.4047688,10,1.5095437,255.4797531,255.4797531,0.0387127,256.7991698,[0.3375],[-0.35833333333333334],[1],[0],[0],,['target'],P3,1,2024-10-10_11h19.41.839,untitled,2024.1.5,None,2024-10-10 11h20.10.708007 +0530
129,0,129,0,256.8457941,,256.8036353,10,1.554617,256.8457941,256.8457941,0.0223917,258.4835686,[-0.1875],[-0.041666666666666664],[1],[0],[0],,['target'],P3,1,2024-10-10_11h19.41.839,untitled,2024.1.5,None,2024-10-10 11h20.10.708007 +0530
130,0,130,0,258.5630081,,258.4877543,10,1.9420678,258.5630081,258.5630081,0.0429964,260.0333056,[0.21666666666666667],[-0.02361111111111111],[1],[0],[0],,['target'],P3,1,2024-10-10_11h19.41.839,untitled,2024.1.5,None,2024-10-10 11h20.10.708007 +0530
131,0,131,0,260.1132119,,260.0379697,10,1.6553229,260.1132119,260.1132119,0.0444353,265.2662846,[0.3888888888888889],[-0.4236111111111111],[1],[0],[0],,['target'],P3,1,2024-10-10_11h19.41.839,untitled,2024.1.5,None,2024-10-10 11h20.10.708007 +0530
132,0,132,0,265.3458431,,265.2714633,10,4.0561501,265.3458431,265.3458431,0.0423248,266.6993707,[0.4041666666666667],[0.002777777777777778],[1],[0],[0],,['target'],P3,1,2024-10-10_11h19.41.839,untitled,2024.1.5,None,2024-10-10 11h20.10.708007 +0530
133,0,133,0,266.7463177,,266.704231,10,3.1575998,266.7463177,266.7463177,0.0223684,269.2327256,[-0.08472222222222223],[0.04722222222222222],[1],[0],[0],,['target'],P3,1,2024-10-10_11h19.41.839,untitled,2024.1.5,None,2024-10-10 11h20.10.708007 +0530
134,0,134,0,269.2953823,,269.2373717,10,2.4688163,269.2953823,269.2953823,0.0369239,271.5483953,[-0.25416666666666665],[0.48194444444444445],[1],[0],[0],,['target'],P3,1,2024-10-10_11h19.41.839,untitled,2024.1.5,None,2024-10-10 11h20.10.708007 +0530
135,0,135,0,271.6329746,,271.5522344,10,2.1178085,271.6329746,271.6329746,0.0416403,273.4831686,[0.32222222222222224],[0.36666666666666664],[1],[0],[0],,['target'],P3,1,2024-10-10_11h19.41.839,untitled,2024.1.5,None,2024-10-10 11h20.10.708007 +0530
136,0,136,0,273.5292704,,273.4872786,10,1.2372219,273.5292704,273.5292704,0.0233111,275.266984,[0.35833333333333334],[-0.35694444444444445],[1],[0],[0],,['target'],P3,1,2024-10-10_11h19.41.839,untitled,2024.1.5,None,2024-10-10 11h20.10.708007 +0530
137,0,137,0,275.3125395,,275.2712246,10,1.7588313,275.3125395,275.3125395,0.0224095,276.9827308,[0.12916666666666668],[-0.24444444444444444],[1],[0],[0],,['target'],P3,1,2024-10-10_11h19.41.839,untitled,2024.1.5,None,2024-10-10 11h20.10.708007 +0530
138,0,138,0,277.0288524,,276.9868878,10,1.9369551,277.0288524,277.0288524,0.0211973,278.5486071,[-0.2763888888888889],[-0.09027777777777778],[1],[0],[0],,['target'],P3,1,2024-10-10_11h19.41.839,untitled,2024.1.5,None,2024-10-10 11h20.10.708007 +0530
139,0,139,0,278.5950505,,278.5537277,10,4.7525338,278.5950505,278.5950505,0.0205902,280.8167152,[0.21388888888888888],[0.45555555555555555],[1],[0],[0],,['target'],P3,1,2024-10-10_11h19.41.839,untitled,2024.1.5,None,2024-10-10 11h20.10.708007 +0530
140,0,140,0,280.8784752,,280.820858,10,1.7224208,280.8784752,280.8784752,0.0395941,283.3820793,[0.475],[-0.3055555555555556],[1],[0],[0],,['target'],P3,1,2024-10-10_11h19.41.839,untitled,2024.1.5,None,2024-10-10 11h20.10.708007 +0530
141,0,141,0,283.4456222,,283.3901908,10,1.6365195,283.4456222,283.4456222,0.0301289,284.9496117,[-0.034722222222222224],[0.46111111111111114],[1],[0],[0],,['target'],P3,1,2024-10-10_11h19.41.839,untitled,2024.1.5,None,2024-10-10 11h20.10.708007 +0530
142,0,142,0,285.0287119,,284.9537729,10,1.3034339,285.0287119,285.0287119,0.0407273,286.4816257,[0.49583333333333335],[0.15833333333333333],[1],[0],[0],,['target'],P3,1,2024-10-10_11h19.41.839,untitled,2024.1.5,None,2024-10-10 11h20.10.708007 +0530
143,0,143,0,286.5454338,,286.4858234,10,1.9261542,286.5454338,286.5454338,0.0382406,289.6139846,[0.4444444444444444],[-0.2375],[1],[0],[0],,['target'],P3,1,2024-10-10_11h19.41.839,untitled,2024.1.5,None,2024-10-10 11h20.10.708007 +0530
144,0,144,0,289.6617375,,289.6185347,10,2.1758896,289.6617375,289.6617375,0.0220003,291.1652067,[-0.44583333333333336],[-0.13472222222222222],[1],[0],[0],,['target'],P3,1,2024-10-10_11h19.41.839,untitled,2024.1.5,None,2024-10-10 11h20.10.708007 +0530
145,0,145,0,291.2119098,,291.1692866,10,2.1259077,291.2119098,291.2119098,0.0189457,292.9996041,[0.4027777777777778],[0.26944444444444443],[1],[0],[0],,['target'],P3,1,2024-10-10_11h19.41.839,untitled,2024.1.5,None,2024-10-10 11h20.10.708007 +0530
146,0,146,0,293.0456941,,293.0040458,10,1.9374852,293.0456941,293.0456941,0.0226006,294.7830504,[-0.09861111111111111],[-0.12916666666666668],[1],[0],[0],,['target'],P3,1,2024-10-10_11h19.41.839,untitled,2024.1.5,None,2024-10-10 11h20.10.708007 +0530
147,0,147,0,294.8282966,,294.7883303,10,3.575028,294.8282966,294.8282966,0.0236727,296.29877,[0.22083333333333333],[0.30972222222222223],[1],[0],[0],,['target'],P3,1,2024-10-10_11h19.41.839,untitled,2024.1.5,None,2024-10-10 11h20.10.708007 +0530
148,0,148,0,296.361569,,296.3033473,10,1.5051927,296.361569,296.361569,0.0377223,298.6643943,[-0.19027777777777777],[0.11388888888888889],[1],[0],[0],,['target'],P3,1,2024-10-10_11h19.41.839,untitled,2024.1.5,None,2024-10-10 11h20.10.708007 +0530
149,0,149,0,298.711508,,298.6687707,10,1.4892794,298.711508,298.711508,0.0208529,300.1660312,[0.4388888888888889],[0.12083333333333333],[1],[0],[0],,['target'],P3,1,2024-10-10_11h19.41.839,untitled,2024.1.5,None,2024-10-10 11h20.10.708007 +0530
150,0,150,0,300.2451903,,300.1703568,10,3.7405737,300.2451903,300.2451903,0.0398525,302.0648409,[0.4388888888888889],[-0.37916666666666665],[1],[0],[0],,['target'],P3,1,2024-10-10_11h19.41.839,untitled,2024.1.5,None,2024-10-10 11h20.10.708007 +0530
151,0,151,0,302.1446782,,302.0729401,10,2.7232343,302.1446782,302.1446782,0.0448515,303.7523398,[-0.19583333333333333],[-0.23055555555555557],[1],[0],[0],,['target'],P3,1,2024-10-10_11h19.41.839,untitled,2024.1.5,None,2024-10-10 11h20.10.708007 +0530
152,0,152,0,303.8281899,,303.7567258,10,1.5050263,303.8281899,303.8281899,0.0430942,305.4013213,[-0.22916666666666666],[0.10694444444444444],[1],[0],[0],,['target'],P3,1,2024-10-10_11h19.41.839,untitled,2024.1.5,None,2024-10-10 11h20.10.708007 +0530
153,0,153,0,305.4786658,,305.4057179,10,1.9531095,305.4786658,305.4786658,0.0421475,307.2158971,[-0.058333333333333334],[-0.3958333333333333],[1],[0],[0],,['target'],P3,1,2024-10-10_11h19.41.839,untitled,2024.1.5,None,2024-10-10 11h20.10.708007 +0530
154,0,154,0,307.2780178,,307.2207586,10,1.6219854,307.2780178,307.2780178,0.0376422,308.7820894,[0.3055555555555556],[-0.28055555555555556],[1],[0],[0],,['target'],P3,1,2024-10-10_11h19.41.839,untitled,2024.1.5,None,2024-10-10 11h20.10.708007 +0530
155,0,155,0,308.8286844,,308.7862445,10,1.7218013,308.8286844,308.8286844,0.0216889,311.5639187,[-0.005555555555555556],[0.48194444444444445],[1],[0],[0],,['target'],P3,1,2024-10-10_11h19.41.839,untitled,2024.1.5,None,2024-10-10 11h20.10.708007 +0530
156,0,156,0,311.6282353,,311.5694923,10,1.9206273,311.6282353,311.6282353,0.0363943,313.5151182,[-0.18472222222222223],[0.11666666666666667],[1],[0],[0],,['target'],P3,1,2024-10-10_11h19.41.839,untitled,2024.1.5,None,2024-10-10 11h20.10.708007 +0530
157,0,157,0,313.5948821,,313.5217458,10,2.0534034,313.5948821,313.5948821,0.0426296,315.5646102,[-0.4263888888888889],[-0.4583333333333333],[1],[0],[0],,['target'],P3,1,2024-10-10_11h19.41.839,untitled,2024.1.5,None,2024-10-10 11h20.10.708007 +0530
158,0,158,0,315.6114553,,315.5706197,10,2.4499396,315.6114553,315.6114553,0.0201618,317.3804852,[-0.43472222222222223],[0.12638888888888888],[1],[0],[0],,['target'],P3,1,2024-10-10_11h19.41.839,untitled,2024.1.5,None,2024-10-10 11h20.10.708007 +0530
159,0,159,0,317.4443861,,317.3856705,10,1.6067612,317.4443861,317.4443861,0.0354645,319.4813644,[-0.425],[0.29583333333333334],[1],[0],[0],,['target'],P3,1,2024-10-10_11h19.41.839,untitled,2024.1.5,None,2024-10-10 11h20.10.708007 +0530
160,0,160,0,319.5785753,,319.4859131,10,1.8048521,319.5785753,319.5785753,0.0520804,321.363794,[-0.3861111111111111],[-0.02361111111111111],[1],[0],[0],,['target'],P3,1,2024-10-10_11h19.41.839,untitled,2024.1.5,None,2024-10-10 11h20.10.708007 +0530
161,0,161,0,321.427581,,321.3693461,10,1.3556676,321.427581,321.427581,0.0371652,323.0652696,[0.15],[-0.3013888888888889],[1],[0],[0],,['target'],P3,1,2024-10-10_11h19.41.839,untitled,2024.1.5,None,2024-10-10 11h20.10.708007 +0530
162,0,162,0,323.1110729,,323.069714,10,1.5026455,323.1110729,323.1110729,0.0166853,325.568126,[0.15],[0.3680555555555556],[1],[0],[0],,['target'],P3,1,2024-10-10_11h19.41.839,untitled,2024.1.5,None,2024-10-10 11h20.10.708007 +0530
163,0,163,0,325.6457205,,325.573075,10,5.1840151,325.6457205,325.6457205,0.0406124,327.897172,[0.3236111111111111],[0.2986111111111111],[1],[0],[0],,['target'],P3,1,2024-10-10_11h19.41.839,untitled,2024.1.5,None,2024-10-10 11h20.10.708007 +0530
164,0,164,0,327.9612291,,327.9016597,10,1.3854475,327.9612291,327.9612291,0.0386858,329.6823122,[0.2],[-0.2569444444444444],[1],[0],[0],,['target'],P3,1,2024-10-10_11h19.41.839,untitled,2024.1.5,None,2024-10-10 11h20.10.708007 +0530
165,0,165,0,329.7620194,,329.6867292,10,2.2745332,329.7620194,329.7620194,0.0417966,331.5972651,[0.38472222222222224],[-0.40694444444444444],[1],[0],[0],,['target'],P3,1,2024-10-10_11h19.41.839,untitled,2024.1.5,None,2024-10-10 11h20.10.708007 +0530
166,0,166,0,331.6818463,,331.6028699,10,1.8888292,331.6818463,331.6818463,0.0466308,332.9821236,[0.4013888888888889],[-0.4444444444444444],[1],[0],[0],,['target'],P3,1,2024-10-10_11h19.41.839,untitled,2024.1.5,None,2024-10-10 11h20.10.708007 +0530
167,0,167,0,333.0612649,,332.9877535,10,2.5215763,333.0612649,333.0612649,0.0423511,334.3978424,[-0.3236111111111111],[-0.18333333333333332],[1],[0],[0],,['target'],P3,1,2024-10-10_11h19.41.839,untitled,2024.1.5,None,2024-10-10 11h20.10.708007 +0530
168,0,168,0,334.47811,,334.402054,10,1.4871078,334.47811,334.47811,0.0428587,336.2976062,[-0.44583333333333336],[-0.3597222222222222],[1],[0],[0],,['target'],P3,1,2024-10-10_11h19.41.839,untitled,2024.1.5,None,2024-10-10 11h20.10.708007 +0530
169,0,169,0,336.3611068,,336.3019215,10,3.0901665,336.3611068,336.3611068,0.0380829,338.7479993,[0.2125],[0.3277777777777778],[1],[0],[0],,['target'],P3,1,2024-10-10_11h19.41.839,untitled,2024.1.5,None,2024-10-10 11h20.10.708007 +0530
170,0,170,0,338.8111536,,338.751989,10,2.323595,338.8111536,338.8111536,0.0376878,340.5474268,[-0.48055555555555557],[-0.2125],[1],[0],[0],,['target'],P3,1,2024-10-10_11h19.41.839,untitled,2024.1.5,None,2024-10-10 11h20.10.708007 +0530
171,0,171,0,340.5939425,,340.5530396,10,1.8546709,340.5939425,340.5939425,0.0210029,342.3820492,[-0.04027777777777778],[0.09861111111111111],[1],[0],[0],,['target'],P3,1,2024-10-10_11h19.41.839,untitled,2024.1.5,None,2024-10-10 11h20.10.708007 +0530
172,0,172,0,342.4279945,,342.3862049,10,1.6351836,342.4279945,342.4279945,0.0214983,343.9820082,[0.38055555555555554],[-0.08055555555555556],[1],[0],[0],,['target'],P3,1,2024-10-10_11h19.41.839,untitled,2024.1.5,None,2024-10-10 11h20.10.708007 +0530
173,0,173,0,344.0611064,,343.9862193,10,1.6014028,344.0611064,344.0611064,0.0418304,345.3638477,[-0.35833333333333334],[-0.24444444444444444],[1],[0],[0],,['target'],P3,1,2024-10-10_11h19.41.839,untitled,2024.1.5,None,2024-10-10 11h20.10.708007 +0530
174,0,174,0,345.4114075,,345.3677786,10,1.7679654,345.4114075,345.4114075,0.0210575,347.3663771,[-0.25833333333333336],[-0.29444444444444445],[1],[0],[0],,['target'],P3,1,2024-10-10_11h19.41.839,untitled,2024.1.5,None,2024-10-10 11h20.10.708007 +0530
175,0,175,0,347.4115217,,347.3707454,10,1.5237793,347.4115217,347.4115217,0.0197985,349.3462419,[0.15],[0.006944444444444444],[1],[0],[0],,['target'],P3,1,2024-10-10_11h19.41.839,untitled,2024.1.5,None,2024-10-10 11h20.10.708007 +0530
176,0,176,0,349.3937889,,349.3507924,10,1.9094641,349.3937889,349.3937889,0.0165916,350.9649512,[-0.23055555555555557],[-0.12777777777777777],[1],[0],[0],,['target'],P3,1,2024-10-10_11h19.41.839,untitled,2024.1.5,None,2024-10-10 11h20.10.708007 +0530
177,0,177,0,351.0273885,,350.9695469,10,2.0012166,351.0273885,351.0273885,0.0376736,352.4296483,[0.25555555555555554],[-0.17222222222222222],[1],[0],[0],,['target'],P3,1,2024-10-10_11h19.41.839,untitled,2024.1.5,None,2024-10-10 11h20.10.708007 +0530
178,0,178,0,352.4774669,,352.4345858,10,2.0606661,352.4774669,352.4774669,0.0272027,354.0663208,[0.21666666666666667],[-0.4361111111111111],[1],[0],[0],,['target'],P3,1,2024-10-10_11h19.41.839,untitled,2024.1.5,None,2024-10-10 11h20.10.708007 +0530
179,0,179,0,354.1440044,,354.0703715,10,1.8261398,354.1440044,354.1440044,0.0416426,356.9475396,[-0.33055555555555555],[0.25972222222222224],[1],[0],[0],,['target'],P3,1,2024-10-10_11h19.41.839,untitled,2024.1.5,None,2024-10-10 11h20.10.708007 +0530
180,0,180,0,356.9940116,,356.9534028,10,1.659389,356.9940116,356.9940116,0.0244968,358.9154638,[-0.28194444444444444],[-0.4222222222222222],[1],[0],[0],,['target'],P3,1,2024-10-10_11h19.41.839,untitled,2024.1.5,None,2024-10-10 11h20.10.708007 +0530
181,0,181,0,358.9603623,,358.9224587,10,2.2837216,358.9603623,358.9603623,0.0271999,360.5989741,[0.37222222222222223],[0.043055555555555555],[1],[0],[0],,['target'],P3,1,2024-10-10_11h19.41.839,untitled,2024.1.5,None,2024-10-10 11h20.10.708007 +0530
182,0,182,0,360.6780544,,360.6032306,10,1.7419296,360.6780544,360.6780544,0.0418907,363.1305548,[-0.4388888888888889],[0.10694444444444444],[1],[0],[0],,['target'],P3,1,2024-10-10_11h19.41.839,untitled,2024.1.5,None,2024-10-10 11h20.10.708007 +0530
183,0,183,0,363.1942978,,363.1349518,10,1.8689907,363.1942978,363.1942978,0.0371461,364.5313869,[0.23194444444444445],[-0.18055555555555555],[1],[0],[0],,['target'],P3,1,2024-10-10_11h19.41.839,untitled,2024.1.5,None,2024-10-10 11h20.10.708007 +0530
184,0,184,0,364.5936744,,364.5356351,10,1.3331226,364.5936744,364.5936744,0.0397311,366.4977214,[0.43194444444444446],[-0.3875],[1],[0],[0],,['target'],P3,1,2024-10-10_11h19.41.839,untitled,2024.1.5,None,2024-10-10 11h20.10.708007 +0530
185,0,185,0,366.5439185,,366.5063656,10,1.3681737,366.5439185,366.5439185,0.0234402,367.9659116,[-0.2],[-0.2111111111111111],[1],[0],[0],,['target'],P3,1,2024-10-10_11h19.41.839,untitled,2024.1.5,None,2024-10-10 11h20.10.708007 +0530
186,0,186,0,368.0269109,,367.9700445,10,1.8526597,368.0269109,368.0269109,0.0374271,369.8307552,[0.3],[0.1527777777777778],[1],[0],[0],,['target'],P3,1,2024-10-10_11h19.41.839,untitled,2024.1.5,None,2024-10-10 11h20.10.708007 +0530
187,0,187,0,369.8773792,,369.8350073,10,2.4079908,369.8773792,369.8773792,0.0222679,371.4141453,[-0.31805555555555554],[-0.4222222222222222],[1],[0],[0],,['target'],P3,1,2024-10-10_11h19.41.839,untitled,2024.1.5,None,2024-10-10 11h20.10.708007 +0530
188,0,188,0,371.4767191,,371.4185466,10,1.7579493,371.4767191,371.4767191,0.0365719,373.079187,[-0.2638888888888889],[0.29444444444444445],[1],[0],[0],,['target'],P3,1,2024-10-10_11h19.41.839,untitled,2024.1.5,None,2024-10-10 11h20.10.708007 +0530
189,0,189,0,373.1438474,,373.0836916,10,1.3357634,373.1438474,373.1438474,0.0366964,374.6312499,[-0.35138888888888886],[-0.011111111111111112],[1],[0],[0],,['target'],P3,1,2024-10-10_11h19.41.839,untitled,2024.1.5,None,2024-10-10 11h20.10.708007 +0530
190,0,190,0,374.677021,,374.6350641,10,1.4229168,374.677021,374.677021,0.0242585,374.8973104,[-0.35138888888888886],[-0.011111111111111112],[1],[0],[0],,[],P3,1,2024-10-10_11h19.41.839,untitled,2024.1.5,None,2024-10-10 11h20.10.708007 +0530
191,0,191,0,374.9470691,,374.9015198,10,2.8355872,374.9470691,374.9470691,0.0204431,376.3307823,[0.24305555555555555],[-0.06805555555555555],[1],[0],[0],,['target'],P3,1,2024-10-10_11h19.41.839,untitled,2024.1.5,None,2024-10-10 11h20.10.708007 +0530
192,0,192,0,376.3767047,,376.3351593,10,2.4855351,376.3767047,376.3767047,0.0188239,377.7809584,[-0.02361111111111111],[0.3611111111111111],[1],[0],[0],,['target'],P3,1,2024-10-10_11h19.41.839,untitled,2024.1.5,None,2024-10-10 11h20.10.708007 +0530
193,0,193,0,377.8275039,,377.7855255,10,1.3593548,377.8275039,377.8275039,0.0234176,379.6968663,[0.03888888888888889],[0.3194444444444444],[1],[0],[0],,[],P3,1,2024-10-10_11h19.41.839,untitled,2024.1.5,None,2024-10-10 11h20.10.708007 +0530
194,0,194,0,379.7602404,,379.7010854,10,1.9223838,379.7602404,379.7602404,0.0369145,381.0152152,[0.21388888888888888],[0.06666666666666667],[1],[0],[0],,['target'],P3,1,2024-10-10_11h19.41.839,untitled,2024.1.5,None,2024-10-10 11h20.10.708007 +0530
195,0,195,0,381.0604018,,381.0192963,10,1.8232402,381.0604018,381.0604018,0.0265359,383.7324252,[-0.1],[0.38055555555555554],[1],[0],[0],,['target'],P3,1,2024-10-10_11h19.41.839,untitled,2024.1.5,None,2024-10-10 11h20.10.708007 +0530
196,0,196,0,383.7776284,,383.7364693,10,1.6241719,383.7776284,383.7776284,0.024646,385.1139136,[0.3486111111111111],[-0.17916666666666667],[1],[0],[0],,['target'],P3,1,2024-10-10_11h19.41.839,untitled,2024.1.5,None,2024-10-10 11h20.10.708007 +0530
197,0,197,0,385.1604477,,385.1180934,10,1.5112206,385.1604477,385.1604477,0.0206256,386.6474348,[0.2916666666666667],[-0.4361111111111111],[1],[0],[0],,['target'],P3,1,2024-10-10_11h19.41.839,untitled,2024.1.5,None,2024-10-10 11h20.10.708007 +0530
198,0,198,0,386.7101911,,386.6518838,10,1.2772376,386.7101911,386.7101911,0.0351752,388.5966808,[0.05555555555555555],[0.35694444444444445],[1],[0],[0],,['target'],P3,1,2024-10-10_11h19.41.839,untitled,2024.1.5,None,2024-10-10 11h20.10.708007 +0530
199,0,199,0,388.6432734,,388.6022849,10,1.9099299,388.6432734,388.6432734,0.0253298,391.0812886,[-0.05416666666666667],[0.18194444444444444],[0],[0],[1],,['target'],P3,1,2024-10-10_11h19.41.839,untitled,2024.1.5,None,2024-10-10 11h20.10.708007 +0530
,,,,,,,,,,,,,,,,,,,,,,,,,,
,,,,,,,Mean RT5,1.786697103,,,,,,,,,,,,,,,,,,
,,,,,,,Mean RT10,2.040395091,,,,,,,,,,,,,,,,,,
,,,,,,,,,,,,,,,,,,,,,,,,,,
,,,,,,,Slope=,0.050739598,,,,,,,,,,,,,,,,,,
