trials.thisRepN,trials.thisTrialN,trials.thisN,trials.thisIndex,thisRow.t,notes,trial.started,num_distr,mouse.time,,fixation.started,target.started,mouse.started,trial.stopped,mouse.x,mouse.y,mouse.leftButton,mouse.midButton,mouse.rightButton,,mouse.clicked_name,participant,session,date,expName,psychopyVersion,frameRate,expStart
0,0,0,0,0.0949088,,0.0160342,5,1.7009268,,0.0949088,0.0949088,0.0655342,1.7308096,[0.21805555555555556],[-0.31666666666666665],[1],[0],[0],,['target'],P4,1,2024-10-10_11h27.38.471,untitled,2024.1.5,None,2024-10-10 11h27.50.612678 +0530
1,0,1,0,1.7944008,,1.7373861,5,1.4181864,,1.7944008,1.7944008,0.0421907,3.2974989,[-0.4263888888888889],[0.05416666666666667],[1],[0],[0],,['target'],P4,1,2024-10-10_11h27.38.471,untitled,2024.1.5,None,2024-10-10 11h27.50.612678 +0530
2,0,2,0,3.3610343,,3.302802,5,1.8611348,,3.3610343,3.3610343,0.0463741,4.8646971,[0.4013888888888889],[0.13472222222222222],[1],[0],[0],,['target'],P4,1,2024-10-10_11h27.38.471,untitled,2024.1.5,None,2024-10-10 11h27.50.612678 +0530
3,0,3,0,4.9114339,,4.8698773,5,1.9923089,,4.9114339,4.9114339,0.0278015,6.5983675,[0.044444444444444446],[-0.38333333333333336],[1],[0],[0],,['target'],P4,1,2024-10-10_11h27.38.471,untitled,2024.1.5,None,2024-10-10 11h27.50.612678 +0530
4,0,4,0,6.6611272,,6.6038665,5,1.4375658,,6.6611272,6.6611272,0.0395268,8.6969493,[0.14305555555555555],[0.25833333333333336],[1],[0],[0],,['target'],P4,1,2024-10-10_11h27.38.471,untitled,2024.1.5,None,2024-10-10 11h27.50.612678 +0530
5,0,5,0,8.7605093,,8.7023084,5,1.1643177,,8.7605093,8.7605093,0.0428065,10.463383,[-0.43333333333333335],[0.020833333333333332],[1],[0],[0],,['target'],P4,1,2024-10-10_11h27.38.471,untitled,2024.1.5,None,2024-10-10 11h27.50.612678 +0530
6,0,6,0,10.509534,,10.4686786,5,1.512812,,10.509534,10.509534,0.0294581,11.9161109,[0.3277777777777778],[0.3333333333333333],[1],[0],[0],,['target'],P4,1,2024-10-10_11h27.38.471,untitled,2024.1.5,None,2024-10-10 11h27.50.612678 +0530
7,0,7,0,11.9941137,,11.9211938,5,2.5421934,,11.9941137,11.9941137,0.0497136,13.696646,[-0.2777777777777778],[0.30972222222222223],[1],[0],[0],,['target'],P4,1,2024-10-10_11h27.38.471,untitled,2024.1.5,None,2024-10-10 11h27.50.612678 +0530
8,0,8,0,13.7441783,,13.7013803,5,2.6227518,,13.7441783,13.7441783,0.0199263,15.5824341,[-0.16805555555555557],[-0.3972222222222222],[1],[0],[0],,['target'],P4,1,2024-10-10_11h27.38.471,untitled,2024.1.5,None,2024-10-10 11h27.50.612678 +0530
9,0,9,0,15.6612159,,15.5865001,5,2.1232584,,15.6612159,15.6612159,0.0446277,17.3151539,[0.12916666666666668],[0.025],[1],[0],[0],,['target'],P4,1,2024-10-10_11h27.38.471,untitled,2024.1.5,None,2024-10-10 11h27.50.612678 +0530
10,0,10,0,17.3775581,,17.3192641,5,1.8750073,,17.3775581,17.3775581,0.0388321,20.1820795,[0.29444444444444445],[-0.1763888888888889],[1],[0],[0],,['target'],P4,1,2024-10-10_11h27.38.471,untitled,2024.1.5,None,2024-10-10 11h27.50.612678 +0530
11,0,11,0,20.2272615,,20.1862291,5,1.9579803,,20.2272615,20.2272615,0.0195108,22.1978479,[0.30277777777777776],[-0.3875],[1],[0],[0],,['target'],P4,1,2024-10-10_11h27.38.471,untitled,2024.1.5,None,2024-10-10 11h27.50.612678 +0530
12,0,12,0,22.2610098,,22.2019297,5,1.1750045,,22.2610098,22.2610098,0.0336134,24.4309037,[-0.48333333333333334],[0.20277777777777778],[1],[0],[0],,['target'],P4,1,2024-10-10_11h27.38.471,untitled,2024.1.5,None,2024-10-10 11h27.50.612678 +0530
13,0,13,0,24.4776969,,24.4353255,5,1.8119928,,24.4776969,24.4776969,0.0256752,25.898214,[0.3388888888888889],[-0.22777777777777777],[1],[0],[0],,['target'],P4,1,2024-10-10_11h27.38.471,untitled,2024.1.5,None,2024-10-10 11h27.50.612678 +0530
14,0,14,0,25.9602816,,25.901653,5,1.1912425,,25.9602816,25.9602816,0.0314376,27.7799305,[0.33611111111111114],[0.20694444444444443],[1],[0],[0],,['target'],P4,1,2024-10-10_11h27.38.471,untitled,2024.1.5,None,2024-10-10 11h27.50.612678 +0530
15,0,15,0,27.8271446,,27.7836304,5,1.4930698,,27.8271446,27.8271446,0.0172312,28.9652006,[0.3402777777777778],[-0.20277777777777778],[1],[0],[0],,['target'],P4,1,2024-10-10_11h27.38.471,untitled,2024.1.5,None,2024-10-10 11h27.50.612678 +0530
16,0,16,0,29.0268264,,28.9692572,5,1.723621,,29.0268264,29.0268264,0.0373349,31.1976593,[-0.12083333333333333],[0.13333333333333333],[1],[0],[0],,['target'],P4,1,2024-10-10_11h27.38.471,untitled,2024.1.5,None,2024-10-10 11h27.50.612678 +0530
17,0,17,0,31.2608539,,31.2019034,5,1.5468798,,31.2608539,31.2608539,0.0388381,32.9963571,[0.06944444444444445],[-0.10138888888888889],[1],[0],[0],,['target'],P4,1,2024-10-10_11h27.38.471,untitled,2024.1.5,None,2024-10-10 11h27.50.612678 +0530
18,0,18,0,33.0435022,,33.0000556,5,1.5227372,,33.0435022,33.0435022,0.0183803,34.5310351,[0.04861111111111111],[0.4111111111111111],[1],[0],[0],,['target'],P4,1,2024-10-10_11h27.38.471,untitled,2024.1.5,None,2024-10-10 11h27.50.612678 +0530
19,0,19,0,34.577191,,34.5345841,5,2.0390309,,34.577191,34.577191,0.0202521,37.0968414,[0.36944444444444446],[0.17083333333333334],[1],[0],[0],,['target'],P4,1,2024-10-10_11h27.38.471,untitled,2024.1.5,None,2024-10-10 11h27.50.612678 +0530
20,0,20,0,37.1479093,,37.1032007,5,1.8036015,,37.1479093,37.1479093,0.020441,39.7461801,[0.04027777777777778],[-0.022222222222222223],[1],[0],[0],,['target'],P4,1,2024-10-10_11h27.38.471,untitled,2024.1.5,None,2024-10-10 11h27.50.612678 +0530
21,0,21,0,39.7933786,,39.7517144,5,2.2721874,,39.7933786,39.7933786,0.0234927,41.8979864,[-0.41944444444444445],[0.2972222222222222],[1],[0],[0],,['target'],P4,1,2024-10-10_11h27.38.471,untitled,2024.1.5,None,2024-10-10 11h27.50.612678 +0530
22,0,22,0,41.9438516,,41.902418,5,1.8752047,,41.9438516,41.9438516,0.0202699,43.7974632,[0.5],[-0.04861111111111111],[1],[0],[0],,['target'],P4,1,2024-10-10_11h27.38.471,untitled,2024.1.5,None,2024-10-10 11h27.50.612678 +0530
23,0,23,0,43.843525,,43.8024225,5,1.9941447,,43.843525,43.843525,0.0198556,45.7801953,[0.11527777777777778],[-0.10555555555555556],[1],[0],[0],,['target'],P4,1,2024-10-10_11h27.38.471,untitled,2024.1.5,None,2024-10-10 11h27.50.612678 +0530
24,0,24,0,45.8266618,,45.7847744,5,1.5779187,,45.8266618,45.8266618,0.020449,46.979981,[-0.05416666666666667],[0.0625],[1],[0],[0],,['target'],P4,1,2024-10-10_11h27.38.471,untitled,2024.1.5,None,2024-10-10 11h27.50.612678 +0530
25,0,25,0,47.02712,,46.9843061,5,1.4580533,,47.02712,47.02712,0.0201889,48.8165561,[0.09166666666666666],[0.36666666666666664],[1],[0],[0],,['target'],P4,1,2024-10-10_11h27.38.471,untitled,2024.1.5,None,2024-10-10 11h27.50.612678 +0530
26,0,26,0,48.8770991,,48.8216265,5,1.7603604,,48.8770991,48.8770991,0.035857,50.0483883,[0.4847222222222222],[-0.10555555555555556],[1],[0],[0],,['target'],P4,1,2024-10-10_11h27.38.471,untitled,2024.1.5,None,2024-10-10 11h27.50.612678 +0530
27,0,27,0,50.0939257,,50.052589,5,1.5433015,,50.0939257,50.0939257,0.0201244,51.5654265,[0.015277777777777777],[-0.09583333333333334],[1],[0],[0],,['target'],P4,1,2024-10-10_11h27.38.471,untitled,2024.1.5,None,2024-10-10 11h27.50.612678 +0530
28,0,28,0,51.6099454,,51.5685023,5,1.7544615,,51.6099454,51.6099454,0.0204294,53.3128041,[-0.0125],[-0.058333333333333334],[1],[0],[0],,['target'],P4,1,2024-10-10_11h27.38.471,untitled,2024.1.5,None,2024-10-10 11h27.50.612678 +0530
29,0,29,0,53.3769805,,53.3170724,5,1.980323,,53.3769805,53.3769805,0.036476,55.3302311,[-0.4638888888888889],[-0.4444444444444444],[1],[0],[0],,['target'],P4,1,2024-10-10_11h27.38.471,untitled,2024.1.5,None,2024-10-10 11h27.50.612678 +0530
30,0,30,0,55.395939,,55.3343068,5,2.0105961,,55.395939,55.395939,0.0398405,57.0458852,[0.3486111111111111],[0.06111111111111111],[1],[0],[0],,['target'],P4,1,2024-10-10_11h27.38.471,untitled,2024.1.5,None,2024-10-10 11h27.50.612678 +0530
31,0,31,0,57.0762389,,57.0495384,5,1.3385867,,57.0762389,57.0762389,0.017491,58.6137862,[-0.275],[0.12916666666666668],[1],[0],[0],,['target'],P4,1,2024-10-10_11h27.38.471,untitled,2024.1.5,None,2024-10-10 11h27.50.612678 +0530
32,0,32,0,58.6605831,,58.619437,5,1.3434412,,58.6605831,58.6605831,0.0220452,60.1634654,[-0.008333333333333333],[-0.14583333333333334],[1],[0],[0],,['target'],P4,1,2024-10-10_11h27.38.471,untitled,2024.1.5,None,2024-10-10 11h27.50.612678 +0530
33,0,33,0,60.2100675,,60.1693589,5,1.5811142,,60.2100675,60.2100675,0.022981,62.2312602,[0.4083333333333333],[0.059722222222222225],[1],[0],[0],,['target'],P4,1,2024-10-10_11h27.38.471,untitled,2024.1.5,None,2024-10-10 11h27.50.612678 +0530
34,0,34,0,62.277384,,62.2354649,5,1.6252891,,62.277384,62.277384,0.0249403,64.0640193,[-0.23194444444444445],[-0.2111111111111111],[1],[0],[0],,['target'],P4,1,2024-10-10_11h27.38.471,untitled,2024.1.5,None,2024-10-10 11h27.50.612678 +0530
35,0,35,0,64.111138,,64.0681784,5,1.3772747,,64.111138,64.111138,0.0228388,66.3629124,[0.27361111111111114],[-0.25],[1],[0],[0],,['target'],P4,1,2024-10-10_11h27.38.471,untitled,2024.1.5,None,2024-10-10 11h27.50.612678 +0530
36,0,36,0,66.4095289,,66.369283,5,1.2372873,,66.4095289,66.4095289,0.0198911,68.2644202,[-0.1361111111111111],[0.17222222222222222],[1],[0],[0],,['target'],P4,1,2024-10-10_11h27.38.471,untitled,2024.1.5,None,2024-10-10 11h27.50.612678 +0530
37,0,37,0,68.3266575,,68.2688992,5,1.9088427,,68.3266575,68.3266575,0.0383304,69.5975976,[0.23055555555555557],[-0.1527777777777778],[1],[0],[0],,['target'],P4,1,2024-10-10_11h27.38.471,untitled,2024.1.5,None,2024-10-10 11h27.50.612678 +0530
38,0,38,0,69.6599995,,69.6019204,5,1.3068294,,69.6599995,69.6599995,0.0319986,71.4799916,[0.09722222222222222],[0.4361111111111111],[1],[0],[0],,['target'],P4,1,2024-10-10_11h27.38.471,untitled,2024.1.5,None,2024-10-10 11h27.50.612678 +0530
39,0,39,0,71.5464044,,71.484134,5,1.959509,,71.5464044,71.5464044,0.0415357,73.3968437,[-0.24861111111111112],[-0.1375],[1],[0],[0],,['target'],P4,1,2024-10-10_11h27.38.471,untitled,2024.1.5,None,2024-10-10 11h27.50.612678 +0530
40,0,40,0,73.443122,,73.4008034,5,1.2577561,,73.443122,73.443122,0.0186889,75.4135222,[-0.3277777777777778],[-0.38055555555555554],[1],[0],[0],,['target'],P4,1,2024-10-10_11h27.38.471,untitled,2024.1.5,None,2024-10-10 11h27.50.612678 +0530
41,0,41,0,75.4774835,,75.4183615,5,1.7650028,,75.4774835,75.4774835,0.0324866,78.4472644,[-0.43472222222222223],[0.14027777777777778],[1],[0],[0],,['target'],P4,1,2024-10-10_11h27.38.471,untitled,2024.1.5,None,2024-10-10 11h27.50.612678 +0530
42,0,42,0,78.4929109,,78.451662,5,1.308774,,78.4929109,78.4929109,0.0188498,80.0484709,[-0.008333333333333333],[-0.06666666666666667],[1],[0],[0],,['target'],P4,1,2024-10-10_11h27.38.471,untitled,2024.1.5,None,2024-10-10 11h27.50.612678 +0530
43,0,43,0,80.1272427,,80.0526545,5,1.3235412,,80.1272427,80.1272427,0.0375434,81.496494,[-0.4791666666666667],[-0.1986111111111111],[1],[0],[0],,['target'],P4,1,2024-10-10_11h27.38.471,untitled,2024.1.5,None,2024-10-10 11h27.50.612678 +0530
44,0,44,0,81.5432246,,81.5008631,5,2.0400355,,81.5432246,81.5432246,0.0219828,82.9806887,[-0.4666666666666667],[0.3902777777777778],[1],[0],[0],,['target'],P4,1,2024-10-10_11h27.38.471,untitled,2024.1.5,None,2024-10-10 11h27.50.612678 +0530
45,0,45,0,83.0426714,,82.9852228,5,1.5086071,,83.0426714,83.0426714,0.0357977,84.9469568,[-0.21805555555555556],[-0.26944444444444443],[1],[0],[0],,['target'],P4,1,2024-10-10_11h27.38.471,untitled,2024.1.5,None,2024-10-10 11h27.50.612678 +0530
46,0,46,0,85.0090271,,84.951317,5,1.6049414,,85.0090271,85.0090271,0.0344406,86.8460889,[0.4097222222222222],[-0.375],[1],[0],[0],,['target'],P4,1,2024-10-10_11h27.38.471,untitled,2024.1.5,None,2024-10-10 11h27.50.612678 +0530
47,0,47,0,86.9263034,,86.8537525,5,1.3741001,,86.9263034,86.9263034,0.043268,89.562897,[-0.12777777777777777],[-0.03611111111111111],[1],[0],[0],,['target'],P4,1,2024-10-10_11h27.38.471,untitled,2024.1.5,None,2024-10-10 11h27.50.612678 +0530
48,0,48,0,89.609964,,89.5668472,5,3.9752198,,89.609964,89.609964,0.0199863,91.3470288,[-0.03611111111111111],[-0.08055555555555556],[1],[0],[0],,['target'],P4,1,2024-10-10_11h27.38.471,untitled,2024.1.5,None,2024-10-10 11h27.50.612678 +0530
49,0,49,0,91.3931823,,91.3515669,5,2.0027763,,91.3931823,91.3931823,0.0193038,92.914054,[-0.2569444444444444],[0.24166666666666667],[1],[0],[0],,['target'],P4,1,2024-10-10_11h27.38.471,untitled,2024.1.5,None,2024-10-10 11h27.50.612678 +0530
50,0,50,0,92.9600211,,92.9201778,5,1.3741922,,92.9600211,92.9600211,0.0223179,94.6961623,[0.26666666666666666],[0.14305555555555555],[1],[0],[0],,['target'],P4,1,2024-10-10_11h27.38.471,untitled,2024.1.5,None,2024-10-10 11h27.50.612678 +0530
51,0,51,0,94.7595396,,94.7005153,5,1.2969134,,94.7595396,94.7595396,0.0397475,96.8305135,[0.10416666666666667],[0.04861111111111111],[1],[0],[0],,['target'],P4,1,2024-10-10_11h27.38.471,untitled,2024.1.5,None,2024-10-10 11h27.50.612678 +0530
52,0,52,0,96.8929245,,96.8348794,5,1.27539,,96.8929245,96.8929245,0.0405689,98.3130224,[0.24444444444444444],[0.08472222222222223],[1],[0],[0],,['target'],P4,1,2024-10-10_11h27.38.471,untitled,2024.1.5,None,2024-10-10 11h27.50.612678 +0530
53,0,53,0,98.3425008,,98.3168479,5,1.6306356,,98.3425008,98.3425008,0.0171409,100.3145701,[-0.11388888888888889],[-0.3972222222222222],[1],[0],[0],,['target'],P4,1,2024-10-10_11h27.38.471,untitled,2024.1.5,None,2024-10-10 11h27.50.612678 +0530
54,0,54,0,100.3766614,,100.3195934,5,1.730275,,100.3766614,100.3766614,0.037062,102.4121227,[-0.08194444444444444],[0.19583333333333333],[1],[0],[0],,['target'],P4,1,2024-10-10_11h27.38.471,untitled,2024.1.5,None,2024-10-10 11h27.50.612678 +0530
55,0,55,0,102.4598463,,102.4156145,5,1.2083813,,102.4598463,102.4598463,0.0200338,104.4462993,[0.3527777777777778],[0.006944444444444444],[1],[0],[0],,['target'],P4,1,2024-10-10_11h27.38.471,untitled,2024.1.5,None,2024-10-10 11h27.50.612678 +0530
56,0,56,0,104.509606,,104.4508666,5,1.2619781,,104.509606,104.509606,0.0417244,106.3463925,[0.1486111111111111],[-0.35694444444444445],[1],[0],[0],,['target'],P4,1,2024-10-10_11h27.38.471,untitled,2024.1.5,None,2024-10-10 11h27.50.612678 +0530
57,0,57,0,106.4091911,,106.3499174,5,1.7869673,,106.4091911,106.4091911,0.0355544,108.229963,[-0.3875],[-0.05555555555555555],[1],[0],[0],,['target'],P4,1,2024-10-10_11h27.38.471,untitled,2024.1.5,None,2024-10-10 11h27.50.612678 +0530
58,0,58,0,108.2761609,,108.2346025,5,1.5964953,,108.2761609,108.2761609,0.0234443,109.5963044,[0.24861111111111112],[0.06527777777777778],[1],[0],[0],,['target'],P4,1,2024-10-10_11h27.38.471,untitled,2024.1.5,None,2024-10-10 11h27.50.612678 +0530
59,0,59,0,109.6425997,,109.6004322,5,3.2264331,,109.6425997,109.6425997,0.0201701,110.9640629,[0.19444444444444445],[-0.23472222222222222],[1],[0],[0],,['target'],P4,1,2024-10-10_11h27.38.471,untitled,2024.1.5,None,2024-10-10 11h27.50.612678 +0530
60,0,60,0,111.0259553,,110.9681076,5,1.5245603,,111.0259553,111.0259553,0.0354005,113.3961791,[0.22777777777777777],[0.38472222222222224],[1],[0],[0],,['target'],P4,1,2024-10-10_11h27.38.471,untitled,2024.1.5,None,2024-10-10 11h27.50.612678 +0530
61,0,61,0,113.4587516,,113.3999187,5,1.9243179,,113.4587516,113.4587516,0.032353,115.3160002,[0.08611111111111111],[-0.3],[1],[0],[0],,['target'],P4,1,2024-10-10_11h27.38.471,untitled,2024.1.5,None,2024-10-10 11h27.50.612678 +0530
62,0,62,0,115.376085,,115.32026,5,1.7084131,,115.376085,115.376085,0.0383955,117.1629059,[-0.39444444444444443],[0.14444444444444443],[1],[0],[0],,['target'],P4,1,2024-10-10_11h27.38.471,untitled,2024.1.5,None,2024-10-10 11h27.50.612678 +0530
63,0,63,0,117.2255331,,117.1664566,5,1.5384139,,117.2255331,117.2255331,0.0312893,118.3125848,[-0.059722222222222225],[-0.09166666666666666],[1],[0],[0],,['target'],P4,1,2024-10-10_11h27.38.471,untitled,2024.1.5,None,2024-10-10 11h27.50.612678 +0530
64,0,64,0,118.3752285,,118.3169835,5,1.9973455,,118.3752285,118.3752285,0.0384421,120.995074,[0.38472222222222224],[0.1527777777777778],[1],[0],[0],,['target'],P4,1,2024-10-10_11h27.38.471,untitled,2024.1.5,None,2024-10-10 11h27.50.612678 +0530
65,0,65,0,121.0253303,,120.9987941,5,1.7074045,,121.0253303,121.0253303,0.017624,122.5976064,[0.2652777777777778],[-0.46944444444444444],[1],[0],[0],,['target'],P4,1,2024-10-10_11h27.38.471,untitled,2024.1.5,None,2024-10-10 11h27.50.612678 +0530
66,0,66,0,122.6596077,,122.6017713,5,1.8573881,,122.6596077,122.6596077,0.0420285,124.4290944,[0.3875],[0.34444444444444444],[1],[0],[0],,['target'],P4,1,2024-10-10_11h27.38.471,untitled,2024.1.5,None,2024-10-10 11h27.50.612678 +0530
67,0,67,0,124.4759405,,124.4333816,5,1.3700721,,124.4759405,124.4759405,0.0209149,126.0794406,[0.07222222222222222],[0.09722222222222222],[1],[0],[0],,['target'],P4,1,2024-10-10_11h27.38.471,untitled,2024.1.5,None,2024-10-10 11h27.50.612678 +0530
68,0,68,0,126.1252674,,126.0844517,5,1.6079825,,126.1252674,126.1252674,0.0214357,127.482679,[0.04027777777777778],[-0.3611111111111111],[1],[0],[0],,['target'],P4,1,2024-10-10_11h27.38.471,untitled,2024.1.5,None,2024-10-10 11h27.50.612678 +0530
69,0,69,0,127.5253524,,127.4878511,5,1.9106522,,127.5253524,127.5253524,0.0219615,128.7466948,[0.39166666666666666],[0.2111111111111111],[1],[0],[0],,['target'],P4,1,2024-10-10_11h27.38.471,untitled,2024.1.5,None,2024-10-10 11h27.50.612678 +0530
70,0,70,0,128.8087234,,128.7508344,5,1.9062949,,128.8087234,128.8087234,0.03834,130.0133986,[-0.14166666666666666],[-0.03888888888888889],[1],[0],[0],,['target'],P4,1,2024-10-10_11h27.38.471,untitled,2024.1.5,None,2024-10-10 11h27.50.612678 +0530
71,0,71,0,130.0595685,,130.0175928,5,1.6267077,,130.0595685,130.0595685,0.0218258,131.9481708,[-0.13333333333333333],[-0.23333333333333334],[1],[0],[0],,['target'],P4,1,2024-10-10_11h27.38.471,untitled,2024.1.5,None,2024-10-10 11h27.50.612678 +0530
72,0,72,0,131.9929667,,131.9521174,5,1.873032,,131.9929667,131.9929667,0.020929,133.2797574,[-0.35],[0.3013888888888889],[1],[0],[0],,['target'],P4,1,2024-10-10_11h27.38.471,untitled,2024.1.5,None,2024-10-10 11h27.50.612678 +0530
73,0,73,0,133.3420049,,133.2855452,5,1.8932323,,133.3420049,133.3420049,0.035128,134.4781489,[0.11944444444444445],[0.19722222222222222],[1],[0],[0],,['target'],P4,1,2024-10-10_11h27.38.471,untitled,2024.1.5,None,2024-10-10 11h27.50.612678 +0530
74,0,74,0,134.5254371,,134.4826335,5,1.9926981,,134.5254371,134.5254371,0.02062,136.4624748,[-0.4722222222222222],[0.020833333333333332],[1],[0],[0],,['target'],P4,1,2024-10-10_11h27.38.471,untitled,2024.1.5,None,2024-10-10 11h27.50.612678 +0530
75,0,75,0,136.5249484,,136.4673861,5,3.5266677,,136.5249484,136.5249484,0.0331768,137.7613881,[-0.45416666666666666],[0.12916666666666668],[1],[0],[0],,['target'],P4,1,2024-10-10_11h27.38.471,untitled,2024.1.5,None,2024-10-10 11h27.50.612678 +0530
76,0,76,0,137.8262056,,137.7656123,5,2.0629424,,137.8262056,137.8262056,0.0330539,139.5127732,[0.14027777777777778],[-0.19444444444444445],[1],[0],[0],,['target'],P4,1,2024-10-10_11h27.38.471,untitled,2024.1.5,None,2024-10-10 11h27.50.612678 +0530
77,0,77,0,139.5757752,,139.5167737,5,1.6821926,,139.5757752,139.5757752,0.0412882,141.0783603,[0.09027777777777778],[0.4444444444444444],[1],[0],[0],,['target'],P4,1,2024-10-10_11h27.38.471,untitled,2024.1.5,None,2024-10-10 11h27.50.612678 +0530
78,0,78,0,141.1417814,,141.0831662,5,2.1804254,,141.1417814,141.1417814,0.0354495,142.8632607,[0.2152777777777778],[-0.29583333333333334],[1],[0],[0],,['target'],P4,1,2024-10-10_11h27.38.471,untitled,2024.1.5,None,2024-10-10 11h27.50.612678 +0530
79,0,79,0,142.9093239,,142.8673251,5,1.3733627,,142.9093239,142.9093239,0.0214707,144.1464558,[0.029166666666666667],[-0.03333333333333333],[1],[0],[0],,['target'],P4,1,2024-10-10_11h27.38.471,untitled,2024.1.5,None,2024-10-10 11h27.50.612678 +0530
80,0,80,0,144.1920032,,144.154539,5,2.2628541,,144.1920032,144.1920032,0.0271293,145.9456543,[0.4305555555555556],[-0.31805555555555554],[1],[0],[0],,['target'],P4,1,2024-10-10_11h27.38.471,untitled,2024.1.5,None,2024-10-10 11h27.50.612678 +0530
81,0,81,0,145.9923733,,145.9497676,5,1.5619196,,145.9923733,145.9923733,0.0206285,147.2791535,[0.11388888888888889],[0.15555555555555556],[1],[0],[0],,['target'],P4,1,2024-10-10_11h27.38.471,untitled,2024.1.5,None,2024-10-10 11h27.50.612678 +0530
82,0,82,0,147.3261443,,147.2832774,5,1.3731991,,147.3261443,147.3261443,0.0219974,148.628441,[-0.3194444444444444],[-0.002777777777777778],[1],[0],[0],,['target'],P4,1,2024-10-10_11h27.38.471,untitled,2024.1.5,None,2024-10-10 11h27.50.612678 +0530
83,0,83,0,148.6756913,,148.633583,5,1.6100793,,148.6756913,148.6756913,0.0240708,150.6967388,[0.4513888888888889],[0.2763888888888889],[1],[0],[0],,['target'],P4,1,2024-10-10_11h27.38.471,untitled,2024.1.5,None,2024-10-10 11h27.50.612678 +0530
84,0,84,0,150.7583628,,150.7025197,5,1.4379975,,150.7583628,150.7583628,0.0381705,152.8274931,[0.4486111111111111],[-0.4791666666666667],[1],[0],[0],,['target'],P4,1,2024-10-10_11h27.38.471,untitled,2024.1.5,None,2024-10-10 11h27.50.612678 +0530
85,0,85,0,152.8748639,,152.8312886,5,1.5244908,,152.8748639,152.8748639,0.0307882,154.5958177,[-0.19722222222222222],[-0.19583333333333333],[1],[0],[0],,['target'],P4,1,2024-10-10_11h27.38.471,untitled,2024.1.5,None,2024-10-10 11h27.50.612678 +0530
86,0,86,0,154.659216,,154.5999851,5,2.1602322,,154.659216,154.659216,0.0384732,155.8956563,[0.3486111111111111],[-0.38472222222222224],[1],[0],[0],,['target'],P4,1,2024-10-10_11h27.38.471,untitled,2024.1.5,None,2024-10-10 11h27.50.612678 +0530
87,0,87,0,155.9423209,,155.900219,5,2.7420549,,155.9423209,155.9423209,0.0206565,157.4291646,[-0.10555555555555556],[0.23055555555555557],[1],[0],[0],,['target'],P4,1,2024-10-10_11h27.38.471,untitled,2024.1.5,None,2024-10-10 11h27.50.612678 +0530
88,0,88,0,157.4754483,,157.4347002,5,1.592498,,157.4754483,157.4754483,0.0239743,159.0633572,[0.3819444444444444],[0.19444444444444445],[1],[0],[0],,['target'],P4,1,2024-10-10_11h27.38.471,untitled,2024.1.5,None,2024-10-10 11h27.50.612678 +0530
89,0,89,0,159.1087678,,159.0674116,5,1.0760837,,159.1087678,159.1087678,0.0212193,160.4627881,[0.030555555555555555],[-0.4305555555555556],[1],[0],[0],,['target'],P4,1,2024-10-10_11h27.38.471,untitled,2024.1.5,None,2024-10-10 11h27.50.612678 +0530
90,0,90,0,160.5089703,,160.4668365,5,1.5124558,,160.5089703,160.5089703,0.0211952,164.4630577,[-0.12361111111111112],[0.20694444444444443],[1],[0],[0],,['target'],P4,1,2024-10-10_11h27.38.471,untitled,2024.1.5,None,2024-10-10 11h27.50.612678 +0530
91,0,91,0,164.5087552,,164.4686184,5,2.0895968,,164.5087552,164.5087552,0.0251352,166.4960855,[-0.40694444444444444],[0.016666666666666666],[1],[0],[0],,['target'],P4,1,2024-10-10_11h27.38.471,untitled,2024.1.5,None,2024-10-10 11h27.50.612678 +0530
92,0,92,0,166.5581034,,166.5003966,5,1.9056874,,166.5581034,166.5581034,0.0373107,168.5290282,[-0.4722222222222222],[0.3527777777777778],[1],[0],[0],,['target'],P4,1,2024-10-10_11h27.38.471,untitled,2024.1.5,None,2024-10-10 11h27.50.612678 +0530
93,0,93,0,168.575884,,168.5333777,5,1.4076642,,168.575884,168.575884,0.0213812,169.928769,[-0.4791666666666667],[0.19166666666666668],[1],[0],[0],,['target'],P4,1,2024-10-10_11h27.38.471,untitled,2024.1.5,None,2024-10-10 11h27.50.612678 +0530
94,0,94,0,169.9916161,,169.9325409,5,2.7924076,,169.9916161,169.9916161,0.0312841,171.3440607,[-0.3458333333333333],[0.2708333333333333],[1],[0],[0],,['target'],P4,1,2024-10-10_11h27.38.471,untitled,2024.1.5,None,2024-10-10 11h27.50.612678 +0530
95,0,95,0,171.3744533,,171.3476853,5,1.4415788,,171.3744533,171.3744533,0.0175871,172.6623306,[0.13055555555555556],[0.19305555555555556],[1],[0],[0],,['target'],P4,1,2024-10-10_11h27.38.471,untitled,2024.1.5,None,2024-10-10 11h27.50.612678 +0530
96,0,96,0,172.7090186,,172.666452,5,1.2678782,,172.7090186,172.7090186,0.0210704,173.9631858,[0.1486111111111111],[-0.15833333333333333],[1],[0],[0],,['target'],P4,1,2024-10-10_11h27.38.471,untitled,2024.1.5,None,2024-10-10 11h27.50.612678 +0530
97,0,97,0,174.0087079,,173.9710745,5,1.7101973,,174.0087079,174.0087079,0.0270993,175.6278484,[-0.3888888888888889],[-0.2861111111111111],[1],[0],[0],,['target'],P4,1,2024-10-10_11h27.38.471,untitled,2024.1.5,None,2024-10-10 11h27.50.612678 +0530
98,0,98,0,175.691509,,175.6345779,5,1.4426697,,175.691509,175.691509,0.039308,176.9447602,[0.1763888888888889],[0.044444444444444446],[1],[0],[0],,['target'],P4,1,2024-10-10_11h27.38.471,untitled,2024.1.5,None,2024-10-10 11h27.50.612678 +0530
99,0,99,0,177.0085957,,176.9489193,5,2.0247013,,177.0085957,177.0085957,0.0433082,178.6137005,[-0.37083333333333335],[-0.4222222222222222],[1],[0],[0],,['target'],P4,1,2024-10-10_11h27.38.471,untitled,2024.1.5,None,2024-10-10 11h27.50.612678 +0530
100,0,100,0,178.6747104,,178.6180721,5,1.4925907,,178.6747104,178.6747104,0.0382776,179.7958609,[-0.44166666666666665],[-0.28194444444444444],[1],[0],[0],,['target'],P4,1,2024-10-10_11h27.38.471,untitled,2024.1.5,None,2024-10-10 11h27.50.612678 +0530
101,0,101,0,179.858219,,179.7998122,5,1.5799579,,179.858219,179.858219,0.0367165,181.6630255,[0.016666666666666666],[-0.20277777777777778],[1],[0],[0],,['target'],P4,1,2024-10-10_11h27.38.471,untitled,2024.1.5,None,2024-10-10 11h27.50.612678 +0530
102,0,102,0,181.725257,,181.6673733,5,1.4325331,,181.725257,181.725257,0.0393109,183.5614231,[-0.009722222222222222],[-0.42083333333333334],[1],[0],[0],,['target'],P4,1,2024-10-10_11h27.38.471,untitled,2024.1.5,None,2024-10-10 11h27.50.612678 +0530
103,0,103,0,183.5912573,,183.5652528,5,1.4397621,,183.5912573,183.5912573,0.0171343,185.3125131,[-0.4583333333333333],[0.18055555555555555],[1],[0],[0],,['target'],P4,1,2024-10-10_11h27.38.471,untitled,2024.1.5,None,2024-10-10 11h27.50.612678 +0530
104,0,104,0,185.3584504,,185.3166943,10,1.6636972,,185.3584504,185.3584504,0.0205147,186.5456354,[-0.10833333333333334],[0.24027777777777778],[1],[0],[0],,['target'],P4,1,2024-10-10_11h27.38.471,untitled,2024.1.5,None,2024-10-10 11h27.50.612678 +0530
105,0,105,0,186.6078414,,186.5496526,10,1.5183005,,186.6078414,186.6078414,0.0327553,187.7773537,[-0.16527777777777777],[0.28194444444444444],[1],[0],[0],,['target'],P4,1,2024-10-10_11h27.38.471,untitled,2024.1.5,None,2024-10-10 11h27.50.612678 +0530
106,0,106,0,187.8409727,,187.7809584,10,1.5156875,,187.8409727,187.8409727,0.0347676,189.8775869,[-0.325],[0.30277777777777776],[1],[0],[0],,['target'],P4,1,2024-10-10_11h27.38.471,untitled,2024.1.5,None,2024-10-10 11h27.50.612678 +0530
107,0,107,0,189.9235402,,189.8817101,10,2.0539098,,189.9235402,189.9235402,0.0204213,191.1641269,[-0.06805555555555555],[0.12777777777777777],[1],[0],[0],,['target'],P4,1,2024-10-10_11h27.38.471,untitled,2024.1.5,None,2024-10-10 11h27.50.612678 +0530
108,0,108,0,191.2082736,,191.1687129,10,1.7185351,,191.2082736,191.2082736,0.0225065,192.9778532,[-0.3138888888888889],[-0.4583333333333333],[1],[0],[0],,['target'],P4,1,2024-10-10_11h27.38.471,untitled,2024.1.5,None,2024-10-10 11h27.50.612678 +0530
109,0,109,0,193.0412896,,192.9827098,10,1.7263064,,193.0412896,193.0412896,0.0399793,194.7945175,[0.4263888888888889],[-0.3236111111111111],[1],[0],[0],,['target'],P4,1,2024-10-10_11h27.38.471,untitled,2024.1.5,None,2024-10-10 11h27.50.612678 +0530
110,0,110,0,194.8413049,,194.7983364,10,1.6839086,,194.8413049,194.8413049,0.0178757,196.4129619,[0.32916666666666666],[0.4083333333333333],[1],[0],[0],,['target'],P4,1,2024-10-10_11h27.38.471,untitled,2024.1.5,None,2024-10-10 11h27.50.612678 +0530
111,0,111,0,196.4747287,,196.4171291,10,2.8240983,,196.4747287,196.4747287,0.0379277,197.9616565,[-0.030555555555555555],[0.4152777777777778],[1],[0],[0],,['target'],P4,1,2024-10-10_11h27.38.471,untitled,2024.1.5,None,2024-10-10 11h27.50.612678 +0530
112,0,112,0,198.007805,,197.9659257,10,2.1953904,,198.007805,198.007805,0.0204246,201.2126913,[0.1763888888888889],[0.2875],[1],[0],[0],,['target'],P4,1,2024-10-10_11h27.38.471,untitled,2024.1.5,None,2024-10-10 11h27.50.612678 +0530
113,0,113,0,201.2582227,,201.217246,10,1.847033,,201.2582227,201.2582227,0.0211518,202.7627054,[0.3472222222222222],[0.3611111111111111],[1],[0],[0],,['target'],P4,1,2024-10-10_11h27.38.471,untitled,2024.1.5,None,2024-10-10 11h27.50.612678 +0530
114,0,114,0,202.8093101,,202.7669473,10,2.1912402,,202.8093101,202.8093101,0.0212219,204.7124602,[-0.3888888888888889],[0.46944444444444444],[1],[0],[0],,['target'],P4,1,2024-10-10_11h27.38.471,untitled,2024.1.5,None,2024-10-10 11h27.50.612678 +0530
115,0,115,0,204.7581088,,204.7169531,10,1.7558477,,204.7581088,204.7581088,0.0198575,206.4454393,[0.08888888888888889],[-0.4166666666666667],[1],[0],[0],,['target'],P4,1,2024-10-10_11h27.38.471,untitled,2024.1.5,None,2024-10-10 11h27.50.612678 +0530
116,0,116,0,206.5080432,,206.4498785,10,1.9768587,,206.5080432,206.5080432,0.0399802,208.5597512,[-0.34444444444444444],[-0.05277777777777778],[1],[0],[0],,['target'],P4,1,2024-10-10_11h27.38.471,untitled,2024.1.5,None,2024-10-10 11h27.50.612678 +0530
117,0,117,0,208.6245962,,208.565535,10,1.6721459,,208.6245962,208.6245962,0.0409354,211.2444287,[-0.39305555555555555],[0.45],[1],[0],[0],,['target'],P4,1,2024-10-10_11h27.38.471,untitled,2024.1.5,None,2024-10-10 11h27.50.612678 +0530
118,0,118,0,211.3071636,,211.2489197,10,1.2905209,,211.3071636,211.3071636,0.0352254,213.1456335,[-0.42777777777777776],[-0.34305555555555556],[1],[0],[0],,['target'],P4,1,2024-10-10_11h27.38.471,untitled,2024.1.5,None,2024-10-10 11h27.50.612678 +0530
119,0,119,0,213.1913995,,213.1498695,10,1.8460592,,213.1913995,213.1913995,0.0230904,214.7113766,[0.22083333333333333],[0.2763888888888889],[1],[0],[0],,['target'],P4,1,2024-10-10_11h27.38.471,untitled,2024.1.5,None,2024-10-10 11h27.50.612678 +0530
120,0,120,0,214.7742264,,214.7156049,10,1.871409,,214.7742264,214.7742264,0.0370727,216.4268158,[0.027777777777777776],[-0.12638888888888888],[1],[0],[0],,['target'],P4,1,2024-10-10_11h27.38.471,untitled,2024.1.5,None,2024-10-10 11h27.50.612678 +0530
121,0,121,0,216.4904232,,216.4317389,10,2.9963814,,216.4904232,216.4904232,0.0340833,218.0443868,[-0.4222222222222222],[0.1527777777777778],[1],[0],[0],,['target'],P4,1,2024-10-10_11h27.38.471,untitled,2024.1.5,None,2024-10-10 11h27.50.612678 +0530
122,0,122,0,218.1073703,,218.0492202,10,1.4064096,,218.1073703,218.1073703,0.0331073,219.993527,[0.0625],[-0.23055555555555557],[1],[0],[0],,['target'],P4,1,2024-10-10_11h27.38.471,untitled,2024.1.5,None,2024-10-10 11h27.50.612678 +0530
123,0,123,0,220.0407862,,219.9975667,10,1.9261601,,220.0407862,220.0407862,0.017091,222.0120625,[0.27361111111111114],[-0.09583333333333334],[1],[0],[0],,['target'],P4,1,2024-10-10_11h27.38.471,untitled,2024.1.5,None,2024-10-10 11h27.50.612678 +0530
124,0,124,0,222.0577548,,222.0160908,10,1.8605186,,222.0577548,222.0577548,0.0218312,223.7454321,[-0.2],[-0.47638888888888886],[1],[0],[0],,['target'],P4,1,2024-10-10_11h27.38.471,untitled,2024.1.5,None,2024-10-10 11h27.50.612678 +0530
125,0,125,0,223.8076643,,223.7495359,10,2.6668823,,223.8076643,223.8076643,0.0374591,225.6941146,[-0.013888888888888888],[-0.18888888888888888],[1],[0],[0],,['target'],P4,1,2024-10-10_11h27.38.471,untitled,2024.1.5,None,2024-10-10 11h27.50.612678 +0530
126,0,126,0,225.7570513,,225.6985457,10,2.0901323,,225.7570513,225.7570513,0.0400942,227.8098706,[-0.2861111111111111],[0.2],[1],[0],[0],,['target'],P4,1,2024-10-10_11h27.38.471,untitled,2024.1.5,None,2024-10-10 11h27.50.612678 +0530
127,0,127,0,227.875042,,227.8137367,10,1.437912,,227.875042,227.875042,0.0316045,230.6952192,[0.002777777777777778],[-0.4013888888888889],[1],[0],[0],,['target'],P4,1,2024-10-10_11h27.38.471,untitled,2024.1.5,None,2024-10-10 11h27.50.612678 +0530
128,0,128,0,230.7570158,,230.6992951,10,2.0559058,,230.7570158,230.7570158,0.0370601,232.3768292,[-0.46111111111111114],[-0.3138888888888889],[1],[0],[0],,['target'],P4,1,2024-10-10_11h27.38.471,untitled,2024.1.5,None,2024-10-10 11h27.50.612678 +0530
129,0,129,0,232.4240323,,232.3840068,10,1.8542834,,232.4240323,232.4240323,0.0221244,234.2629182,[-0.2847222222222222],[0.3416666666666667],[1],[0],[0],,['target'],P4,1,2024-10-10_11h27.38.471,untitled,2024.1.5,None,2024-10-10 11h27.50.612678 +0530
130,0,130,0,234.3073018,,234.2670257,10,1.8444098,,234.3073018,234.3073018,0.0245461,235.6616516,[0.45],[-0.21805555555555556],[1],[0],[0],,['target'],P4,1,2024-10-10_11h27.38.471,untitled,2024.1.5,None,2024-10-10 11h27.50.612678 +0530
131,0,131,0,235.7240928,,235.6660631,10,2.3930055,,235.7240928,235.7240928,0.0382847,237.2972174,[0.3638888888888889],[0.2125],[1],[0],[0],,['target'],P4,1,2024-10-10_11h27.38.471,untitled,2024.1.5,None,2024-10-10 11h27.50.612678 +0530
132,0,132,0,237.3572965,,237.3013425,10,1.8835642,,237.3572965,237.3572965,0.0391947,240.2110528,[0.002777777777777778],[0.0625],[1],[0],[0],,['target'],P4,1,2024-10-10_11h27.38.471,untitled,2024.1.5,None,2024-10-10 11h27.50.612678 +0530
133,0,133,0,240.257367,,240.2168055,10,1.8045811,,240.257367,240.257367,0.0202219,241.8445878,[0.48333333333333334],[0.29583333333333334],[1],[0],[0],,['target'],P4,1,2024-10-10_11h27.38.471,untitled,2024.1.5,None,2024-10-10 11h27.50.612678 +0530
134,0,134,0,241.9066949,,241.8487134,10,1.1148867,,241.9066949,241.9066949,0.0362291,243.2443029,[0.4125],[-0.14027777777777778],[1],[0],[0],,['target'],P4,1,2024-10-10_11h27.38.471,untitled,2024.1.5,None,2024-10-10 11h27.50.612678 +0530
135,0,135,0,243.3067186,,243.2497961,10,2.6400583,,243.3067186,243.3067186,0.0343534,244.5606336,[0.3],[0.3472222222222222],[1],[0],[0],,['target'],P4,1,2024-10-10_11h27.38.471,untitled,2024.1.5,None,2024-10-10 11h27.50.612678 +0530
136,0,136,0,244.6072313,,244.564689,10,1.7854759,,244.6072313,244.6072313,0.0199863,246.4952765,[0.37777777777777777],[0.46944444444444444],[1],[0],[0],,['target'],P4,1,2024-10-10_11h27.38.471,untitled,2024.1.5,None,2024-10-10 11h27.50.612678 +0530
137,0,137,0,246.5403569,,246.4993654,10,1.2242895,,246.5403569,246.5403569,0.0222053,248.4280649,[-0.4375],[0.05416666666666667],[1],[0],[0],,['target'],P4,1,2024-10-10_11h27.38.471,untitled,2024.1.5,None,2024-10-10 11h27.50.612678 +0530
138,0,138,0,248.4738559,,248.432735,10,1.1576683,,248.4738559,248.4738559,0.0191837,250.0785588,[-0.2708333333333333],[0.31666666666666665],[1],[0],[0],,['target'],P4,1,2024-10-10_11h27.38.471,untitled,2024.1.5,None,2024-10-10 11h27.50.612678 +0530
139,0,139,0,250.1237797,,250.083005,10,1.2607972,,250.1237797,250.1237797,0.0212177,251.9769032,[-0.05416666666666667],[0.12222222222222222],[1],[0],[0],,['target'],P4,1,2024-10-10_11h27.38.471,untitled,2024.1.5,None,2024-10-10 11h27.50.612678 +0530
140,0,140,0,252.0235459,,251.9822819,10,1.7139851,,252.0235459,252.0235459,0.0194884,253.8947171,[0.42777777777777776],[-0.013888888888888888],[1],[0],[0],,['target'],P4,1,2024-10-10_11h27.38.471,untitled,2024.1.5,None,2024-10-10 11h27.50.612678 +0530
141,0,141,0,253.9565309,,253.8991884,10,1.5204256,,253.9565309,253.9565309,0.0340976,255.709804,[-0.33194444444444443],[-0.26666666666666666],[1],[0],[0],,['target'],P4,1,2024-10-10_11h27.38.471,untitled,2024.1.5,None,2024-10-10 11h27.50.612678 +0530
142,0,142,0,255.7728804,,255.7145602,10,1.7445529,,255.7728804,255.7728804,0.035228,257.60975,[-0.4388888888888889],[0.35833333333333334],[1],[0],[0],,['target'],P4,1,2024-10-10_11h27.38.471,untitled,2024.1.5,None,2024-10-10 11h27.50.612678 +0530
143,0,143,0,257.6574408,,257.6141884,10,2.087854,,257.6574408,257.6574408,0.0210627,259.6279354,[-0.4638888888888889],[-0.30694444444444446],[1],[0],[0],,['target'],P4,1,2024-10-10_11h27.38.471,untitled,2024.1.5,None,2024-10-10 11h27.50.612678 +0530
144,0,144,0,259.6734199,,259.6323912,10,1.7335622,,259.6734199,259.6734199,0.0198985,263.1788864,[-0.1638888888888889],[-0.13055555555555556],[1],[0],[0],,['target'],P4,1,2024-10-10_11h27.38.471,untitled,2024.1.5,None,2024-10-10 11h27.50.612678 +0530
145,0,145,0,263.2396098,,263.1847877,10,1.2572311,,263.2396098,263.2396098,0.0335935,264.7763099,[0.3375],[-0.28888888888888886],[1],[0],[0],,['target'],P4,1,2024-10-10_11h27.38.471,untitled,2024.1.5,None,2024-10-10 11h27.50.612678 +0530
146,0,146,0,264.8232796,,264.7801632,10,1.9910765,,264.8232796,264.8232796,0.0180857,266.861001,[0.1763888888888889],[0.3472222222222222],[1],[0],[0],,['target'],P4,1,2024-10-10_11h27.38.471,untitled,2024.1.5,None,2024-10-10 11h27.50.612678 +0530
147,0,147,0,266.9227915,,266.865158,10,1.3805108,,266.9227915,266.9227915,0.0330906,268.3273772,[0.04861111111111111],[-0.2222222222222222],[1],[0],[0],,['target'],P4,1,2024-10-10_11h27.38.471,untitled,2024.1.5,None,2024-10-10 11h27.50.612678 +0530
148,0,148,0,268.3899556,,268.3310257,10,1.270972,,268.3899556,268.3899556,0.0372986,270.8602461,[-0.07083333333333333],[-0.43472222222222223],[1],[0],[0],,['target'],P4,1,2024-10-10_11h27.38.471,untitled,2024.1.5,None,2024-10-10 11h27.50.612678 +0530
149,0,149,0,270.9229805,,270.8648282,10,1.6214795,,270.9229805,270.9229805,0.0385032,272.7442016,[-0.25555555555555554],[0.3138888888888889],[1],[0],[0],,['target'],P4,1,2024-10-10_11h27.38.471,untitled,2024.1.5,None,2024-10-10 11h27.50.612678 +0530
150,0,150,0,272.8068105,,272.7482458,10,1.1396335,,272.8068105,272.8068105,0.0363562,275.509421,[-0.10833333333333334],[0.004166666666666667],[1],[0],[0],,['target'],P4,1,2024-10-10_11h27.38.471,untitled,2024.1.5,None,2024-10-10 11h27.50.612678 +0530
151,0,151,0,275.5730049,,275.5143101,10,1.8263759,,275.5730049,275.5730049,0.0352849,277.8433682,[-0.37083333333333335],[-0.36666666666666664],[1],[0],[0],,['target'],P4,1,2024-10-10_11h27.38.471,untitled,2024.1.5,None,2024-10-10 11h27.50.612678 +0530
152,0,152,0,277.9068083,,277.8474535,10,1.8550203,,277.9068083,277.9068083,0.0358129,279.7091108,[-0.29583333333333334],[0.08472222222222223],[1],[0],[0],,['target'],P4,1,2024-10-10_11h27.38.471,untitled,2024.1.5,None,2024-10-10 11h27.50.612678 +0530
153,0,153,0,279.7565276,,279.712816,10,1.1952957,,279.7565276,279.7565276,0.0171,281.4121895,[-0.09166666666666666],[0.3736111111111111],[1],[0],[0],,['target'],P4,1,2024-10-10_11h27.38.471,untitled,2024.1.5,None,2024-10-10 11h27.50.612678 +0530
154,0,154,0,281.4923906,,281.4163795,10,2.0619039,,281.4923906,281.4923906,0.0418731,283.2444869,[-0.4527777777777778],[0.10694444444444444],[1],[0],[0],,['target'],P4,1,2024-10-10_11h27.38.471,untitled,2024.1.5,None,2024-10-10 11h27.50.612678 +0530
155,0,155,0,283.3235762,,283.2484494,10,1.7720164,,283.3235762,283.3235762,0.0452499,284.7923142,[-0.1388888888888889],[-0.21666666666666667],[1],[0],[0],,['target'],P4,1,2024-10-10_11h27.38.471,untitled,2024.1.5,None,2024-10-10 11h27.50.612678 +0530
156,0,156,0,284.8226575,,284.7959862,10,1.5067011,,284.8226575,284.8226575,0.0172189,286.9935054,[-0.09583333333333334],[0.4125],[1],[0],[0],,['target'],P4,1,2024-10-10_11h27.38.471,untitled,2024.1.5,None,2024-10-10 11h27.50.612678 +0530
157,0,157,0,287.0396374,,286.9976957,10,2.0700359,,287.0396374,287.0396374,0.0229996,288.3940305,[0.2847222222222222],[0.018055555555555554],[1],[0],[0],,['target'],P4,1,2024-10-10_11h27.38.471,untitled,2024.1.5,None,2024-10-10 11h27.50.612678 +0530
158,0,158,0,288.4565798,,288.398268,10,2.6390113,,288.4565798,288.4565798,0.0339504,289.9256251,[-0.3541666666666667],[-0.06111111111111111],[1],[0],[0],,['target'],P4,1,2024-10-10_11h27.38.471,untitled,2024.1.5,None,2024-10-10 11h27.50.612678 +0530
159,0,159,0,289.973653,,289.929113,10,1.8614088,,289.973653,289.973653,0.0177955,292.2096266,[0.0625],[-0.4736111111111111],[1],[0],[0],,['target'],P4,1,2024-10-10_11h27.38.471,untitled,2024.1.5,None,2024-10-10 11h27.50.612678 +0530
160,0,160,0,292.2723145,,292.2137675,10,1.6742791,,292.2723145,292.2723145,0.0343414,294.1756902,[0.44027777777777777],[-0.43194444444444446],[1],[0],[0],,['target'],P4,1,2024-10-10_11h27.38.471,untitled,2024.1.5,None,2024-10-10 11h27.50.612678 +0530
161,0,161,0,294.2393721,,294.1794516,10,1.5782224,,294.2393721,294.2393721,0.0335635,296.4919924,[-0.2847222222222222],[-0.425],[1],[0],[0],,['target'],P4,1,2024-10-10_11h27.38.471,untitled,2024.1.5,None,2024-10-10 11h27.50.612678 +0530
162,0,162,0,296.5565409,,296.4967978,10,1.9115816,,296.5565409,296.5565409,0.0363094,299.0255807,[-0.0625],[0.30972222222222223],[1],[0],[0],,['target'],P4,1,2024-10-10_11h27.38.471,untitled,2024.1.5,None,2024-10-10 11h27.50.612678 +0530
163,0,163,0,299.0887916,,299.0294716,10,1.9070803,,299.0887916,299.0887916,0.0340914,300.3428166,[-0.05],[0.2652777777777778],[1],[0],[0],,['target'],P4,1,2024-10-10_11h27.38.471,untitled,2024.1.5,None,2024-10-10 11h27.50.612678 +0530
164,0,164,0,300.3895225,,300.3464949,10,2.0715965,,300.3895225,300.3895225,0.0174979,301.9260306,[-0.005555555555555556],[-0.4722222222222222],[1],[0],[0],,['target'],P4,1,2024-10-10_11h27.38.471,untitled,2024.1.5,None,2024-10-10 11h27.50.612678 +0530
165,0,165,0,301.9725847,,301.9303499,10,2.849837,,301.9725847,301.9725847,0.0232009,303.3264947,[0.33194444444444443],[0.02638888888888889],[1],[0],[0],,['target'],P4,1,2024-10-10_11h27.38.471,untitled,2024.1.5,None,2024-10-10 11h27.50.612678 +0530
166,0,166,0,303.3725193,,303.3310406,10,1.6405876,,303.3725193,303.3725193,0.01887,304.9600883,[0.43333333333333335],[0.37916666666666665],[1],[0],[0],,['target'],P4,1,2024-10-10_11h27.38.471,untitled,2024.1.5,None,2024-10-10 11h27.50.612678 +0530
167,0,167,0,305.0065946,,304.9642318,10,1.5930571,,305.0065946,305.0065946,0.0239244,306.4258771,[-0.3375],[-0.4513888888888889],[1],[0],[0],,['target'],P4,1,2024-10-10_11h27.38.471,untitled,2024.1.5,None,2024-10-10 11h27.50.612678 +0530
168,0,168,0,306.4725843,,306.4303068,10,2.8705998,,306.4725843,306.4725843,0.0193634,307.973817,[0.20416666666666666],[-0.3],[1],[0],[0],,['target'],P4,1,2024-10-10_11h27.38.471,untitled,2024.1.5,None,2024-10-10 11h27.50.612678 +0530
169,0,169,0,308.0409928,,307.9782974,10,1.3594125,,308.0409928,308.0409928,0.0332659,311.3627548,[-0.2652777777777778],[-0.38472222222222224],[1],[0],[0],,['target'],P4,1,2024-10-10_11h27.38.471,untitled,2024.1.5,None,2024-10-10 11h27.50.612678 +0530
170,0,170,0,311.4228871,,311.3684093,10,1.2769217,,311.4228871,311.4228871,0.0381369,312.9590608,[0.14722222222222223],[0.49166666666666664],[1],[0],[0],,['target'],P4,1,2024-10-10_11h27.38.471,untitled,2024.1.5,None,2024-10-10 11h27.50.612678 +0530
171,0,171,0,313.0079022,,312.9632629,10,1.7769249,,313.0079022,313.0079022,0.0207065,315.1439606,[-0.23055555555555557],[-0.46805555555555556],[1],[0],[0],,['target'],P4,1,2024-10-10_11h27.38.471,untitled,2024.1.5,None,2024-10-10 11h27.50.612678 +0530
172,0,172,0,315.2054265,,315.1480514,10,1.8599525,,315.2054265,315.2054265,0.0347736,318.4257736,[0.3902777777777778],[-0.4236111111111111],[1],[0],[0],,['target'],P4,1,2024-10-10_11h27.38.471,untitled,2024.1.5,None,2024-10-10 11h27.50.612678 +0530
173,0,173,0,318.4728817,,318.430682,10,1.5582321,,318.4728817,318.4728817,0.0207764,321.1933447,[0.08611111111111111],[-0.44583333333333336],[1],[0],[0],,['target'],P4,1,2024-10-10_11h27.38.471,untitled,2024.1.5,None,2024-10-10 11h27.50.612678 +0530
174,0,174,0,321.2396807,,321.1976871,10,1.4294658,,321.2396807,321.2396807,0.0197171,322.8095972,[0.0875],[-0.24027777777777778],[1],[0],[0],,['target'],P4,1,2024-10-10_11h27.38.471,untitled,2024.1.5,None,2024-10-10 11h27.50.612678 +0530
175,0,175,0,322.8555858,,322.8138491,10,2.4919422,,322.8555858,322.8555858,0.0195515,323.9092557,[0.06111111111111111],[-0.225],[1],[0],[0],,['target'],P4,1,2024-10-10_11h27.38.471,untitled,2024.1.5,None,2024-10-10 11h27.50.612678 +0530
176,0,176,0,323.9722318,,323.9134938,10,1.8408625,,323.9722318,323.9722318,0.0341339,327.8913853,[-0.1638888888888889],[0.35694444444444445],[1],[0],[0],,[],P4,1,2024-10-10_11h27.38.471,untitled,2024.1.5,None,2024-10-10 11h27.50.612678 +0530
177,0,177,0,327.9395518,,327.895648,10,2.7249783,,327.9395518,327.9395518,0.0183107,329.425824,[-0.125],[-0.4722222222222222],[1],[0],[0],,['target'],P4,1,2024-10-10_11h27.38.471,untitled,2024.1.5,None,2024-10-10 11h27.50.612678 +0530
178,0,178,0,329.4722346,,329.4329736,10,2.2941054,,329.4722346,329.4722346,0.0206788,331.5424394,[-0.24027777777777778],[-0.07222222222222222],[1],[0],[0],,['target'],P4,1,2024-10-10_11h27.38.471,untitled,2024.1.5,None,2024-10-10 11h27.50.612678 +0530
179,0,179,0,331.5888134,,331.5493584,10,1.8261934,,331.5888134,331.5888134,0.0210122,333.4753723,[0.07916666666666666],[0.43333333333333335],[1],[0],[0],,['target'],P4,1,2024-10-10_11h27.38.471,untitled,2024.1.5,None,2024-10-10 11h27.50.612678 +0530
180,0,180,0,333.5387355,,333.4800907,10,1.7862,,333.5387355,333.5387355,0.0354743,335.2937619,[-0.46944444444444444],[0.16111111111111112],[1],[0],[0],,['target'],P4,1,2024-10-10_11h27.38.471,untitled,2024.1.5,None,2024-10-10 11h27.50.612678 +0530
181,0,181,0,335.3555426,,335.2979078,10,1.4989689,,335.3555426,335.3555426,0.0394643,337.0598489,[-0.19722222222222222],[0.2125],[1],[0],[0],,['target'],P4,1,2024-10-10_11h27.38.471,untitled,2024.1.5,None,2024-10-10 11h27.50.612678 +0530
182,0,182,0,337.1063749,,337.0637526,10,1.4937997,,337.1063749,337.1063749,0.0215588,338.4927677,[-0.16944444444444445],[0.04861111111111111],[1],[0],[0],,['target'],P4,1,2024-10-10_11h27.38.471,untitled,2024.1.5,None,2024-10-10 11h27.50.612678 +0530
183,0,183,0,338.5397431,,338.4973235,10,1.9279849,,338.5397431,338.5397431,0.0205175,341.3100603,[-0.2625],[0.4152777777777778],[1],[0],[0],,['target'],P4,1,2024-10-10_11h27.38.471,untitled,2024.1.5,None,2024-10-10 11h27.50.612678 +0530
184,0,184,0,341.3559546,,341.3144496,10,2.2790599,,341.3559546,341.3559546,0.0220265,342.777898,[-0.30833333333333335],[-0.15416666666666667],[1],[0],[0],,['target'],P4,1,2024-10-10_11h27.38.471,untitled,2024.1.5,None,2024-10-10 11h27.50.612678 +0530
185,0,185,0,342.8223084,,342.7820522,10,2.4927913,,342.8223084,342.8223084,0.0257224,344.0757479,[-0.2861111111111111],[-0.16805555555555557],[1],[0],[0],,['target'],P4,1,2024-10-10_11h27.38.471,untitled,2024.1.5,None,2024-10-10 11h27.50.612678 +0530
186,0,186,0,344.1389561,,344.0798424,10,1.2795148,,344.1389561,344.1389561,0.0363296,346.0577528,[0.1388888888888889],[-0.38333333333333336],[1],[0],[0],,['target'],P4,1,2024-10-10_11h27.38.471,untitled,2024.1.5,None,2024-10-10 11h27.50.612678 +0530
187,0,187,0,346.1054804,,346.062195,10,3.3510199,,346.1054804,346.1054804,0.0207447,347.7932743,[0.325],[-0.2763888888888889],[1],[0],[0],,['target'],P4,1,2024-10-10_11h27.38.471,untitled,2024.1.5,None,2024-10-10 11h27.50.612678 +0530
188,0,188,0,347.8551993,,347.7973143,10,1.5524801,,347.8551993,347.8551993,0.0378285,350.508982,[0.15138888888888888],[-0.10138888888888889],[1],[0],[0],,['target'],P4,1,2024-10-10_11h27.38.471,untitled,2024.1.5,None,2024-10-10 11h27.50.612678 +0530
189,0,189,0,350.572643,,350.5174181,10,3.2427748,,350.572643,350.572643,0.0337656,351.9924036,[0.03333333333333333],[-0.18888888888888888],[1],[0],[0],,['target'],P4,1,2024-10-10_11h27.38.471,untitled,2024.1.5,None,2024-10-10 11h27.50.612678 +0530
190,0,190,0,352.0383996,,351.996629,10,3.943869,,352.0383996,352.0383996,0.0206436,354.0418472,[-0.3541666666666667],[0.41805555555555557],[1],[0],[0],,['target'],P4,1,2024-10-10_11h27.38.471,untitled,2024.1.5,None,2024-10-10 11h27.50.612678 +0530
191,0,191,0,354.10532,,354.0485771,10,1.7786141,,354.10532,354.10532,0.0354002,356.6754548,[0.4097222222222222],[-0.4027777777777778],[1],[0],[0],,['target'],P4,1,2024-10-10_11h27.38.471,untitled,2024.1.5,None,2024-10-10 11h27.50.612678 +0530
192,0,192,0,356.73841,,356.6798213,10,1.7224484,,356.73841,356.73841,0.0317284,359.8761681,[0.15694444444444444],[-0.4597222222222222],[1],[0],[0],,['target'],P4,1,2024-10-10_11h27.38.471,untitled,2024.1.5,None,2024-10-10 11h27.50.612678 +0530
193,0,193,0,359.9229458,,359.8802286,10,1.9417858,,359.9229458,359.9229458,0.0205531,361.3933065,[-0.3013888888888889],[-0.06111111111111111],[1],[0],[0],,['target'],P4,1,2024-10-10_11h27.38.471,untitled,2024.1.5,None,2024-10-10 11h27.50.612678 +0530
194,0,194,0,361.4554005,,361.3999559,10,2.6737811,,361.4554005,361.4554005,0.0282682,363.0073238,[0.4875],[-0.3680555555555556],[1],[0],[0],,['target'],P4,1,2024-10-10_11h27.38.471,untitled,2024.1.5,None,2024-10-10 11h27.50.612678 +0530
195,0,195,0,363.0714801,,363.0138732,10,2.5922749,,363.0714801,363.0714801,0.0284356,364.4736124,[0.22083333333333333],[0.15555555555555556],[1],[0],[0],,['target'],P4,1,2024-10-10_11h27.38.471,untitled,2024.1.5,None,2024-10-10 11h27.50.612678 +0530
196,0,196,0,364.5378868,,364.4787,10,3.1644753,,364.5378868,364.5378868,0.0316464,365.6749316,[0.20416666666666666],[-0.09722222222222222],[1],[0],[0],,['target'],P4,1,2024-10-10_11h27.38.471,untitled,2024.1.5,None,2024-10-10 11h27.50.612678 +0530
197,0,197,0,365.7395574,,365.6791811,10,1.1650442,,365.7395574,365.7395574,0.0369665,368.0426712,[-0.034722222222222224],[-0.25972222222222224],[1],[0],[0],,['target'],P4,1,2024-10-10_11h27.38.471,untitled,2024.1.5,None,2024-10-10 11h27.50.612678 +0530
198,0,198,0,368.0895157,,368.0469632,10,2.3264486,,368.0895157,368.0895157,0.0226324,369.5092206,[-0.21944444444444444],[0.19166666666666668],[1],[0],[0],,['target'],P4,1,2024-10-10_11h27.38.471,untitled,2024.1.5,None,2024-10-10 11h27.50.612678 +0530
199,0,199,0,369.5734342,,369.5150665,10,2.3545781,,369.5734342,369.5734342,0.0390234,371.9081713,[-0.13055555555555556],[-0.18055555555555555],[1],[0],[0],,['target'],P4,1,2024-10-10_11h27.38.471,untitled,2024.1.5,None,2024-10-10 11h27.50.612678 +0530
,,,,,,,,,,,,,,,,,,,,,,,,,,,
,,,,,,,Mean RT5,1.741480392,,,,,,,,,,,,,,,,,,,
,,,,,,,Mean RT10,1.917781973,,,,,,,,,,,,,,,,,,,
,,,,,,,,,,,,,,,,,,,,,,,,,,,
,,,,,,,Slope=,0.035260316,,,,,,,,,,,,,,,,,,,
