word,colour,condition,cor_res,trials.thisRepN,trials.thisTrialN,trials.thisN,trials.thisIndex,thisRow.t,notes,Instruction.started,text_2.started,key_resp_2.started,Instruction.stopped,key_resp_2.keys,key_resp_2.rt,key_resp_2.duration,Trail.started,fixation.started,key_resp.started,text.started,fixation.stopped,Trail.stopped,key_resp.keys,key_resp.corr,key_resp.rt,key_resp.duration,Thank_you.started,text_3.started,text_3.stopped,Thank_you.stopped,participant,session,date,expName,psychopyVersion,frameRate,expStart,
,,,,,,,,,,0.02982879988849163,0.037029999773949385,0.037029999773949385,10.310465699993074,space,10.259956400142983,None,,,,,,,,,,,,,,,3,001,2024-12-04_14h20.51.707,emotional_stroop,2024.1.5,None,2024-12-04 14h21.01.417473 +0530,
Death,green,I,g,0,0,0,10,10.344906499842182,,,,,,,,,10.329449099954218,10.344906499842182,10.344906499842182,10.818859099876136,10.8520389997866,11.437170899938792,g,1,1.076965499902144,None,,,,,3,001,2024-12-04_14h20.51.707,emotional_stroop,2024.1.5,None,2024-12-04 14h21.01.417473 +0530,
Tree,blue,C,b,0,1,1,27,11.452013599919155,,,,,,,,,11.438793099950999,11.452013599919155,11.452013599919155,11.952389199985191,11.952389199985191,13.736708199838176,b,1,2.281031599966809,None,,,,,3,001,2024-12-04_14h20.51.707,emotional_stroop,2024.1.5,None,2024-12-04 14h21.01.417473 +0530,
Bomb,yellow,I,y,0,2,2,24,13.752112799789757,,,,,,,,,13.737752399872988,13.752112799789757,13.752112799789757,14.25234689982608,14.25234689982608,17.186205099802464,y,1,3.4309855999890715,None,,,,,3,001,2024-12-04_14h20.51.707,emotional_stroop,2024.1.5,None,2024-12-04 14h21.01.417473 +0530,
School,blue,C,b,0,3,3,3,17.201647899812087,,,,,,,,,17.186967599904165,17.201647899812087,17.201647899812087,17.68616809998639,17.70264989999123,19.304786399938166,b,1,2.0963568000588566,None,,,,,3,001,2024-12-04_14h20.51.707,emotional_stroop,2024.1.5,None,2024-12-04 14h21.01.417473 +0530,
Dear,blue,C,b,0,4,4,19,19.320687899831682,,,,,,,,,19.306089399848133,19.320687899831682,19.320687899831682,19.81859669997357,19.83571339980699,20.83669299981557,b,1,1.5018517000135034,None,,,,,3,001,2024-12-04_14h20.51.707,emotional_stroop,2024.1.5,None,2024-12-04 14h21.01.417473 +0530,
Broom,red,C,r,0,5,5,21,20.85167849995196,,,,,,,,,20.83741659997031,20.85167849995196,20.85167849995196,22.92306389985606,22.92306389985606,24.957581699825823,r,1,4.098651000065729,None,,,,,3,001,2024-12-04_14h20.51.707,emotional_stroop,2024.1.5,None,2024-12-04 14h21.01.417473 +0530,
Chalk,green,C,g,0,6,6,2,24.98151359986514,,,,,,,,,24.95901419990696,24.98151359986514,24.98151359986514,25.472612799843773,25.487423799932003,26.474018099950626,g,1,1.4857479999773204,None,,,,,3,001,2024-12-04_14h20.51.707,emotional_stroop,2024.1.5,None,2024-12-04 14h21.01.417473 +0530,
Box,red,C,r,0,7,7,5,26.49259759997949,,,,,,,,,26.475442999973893,26.49259759997949,26.49259759997949,26.988452299963683,27.00357659999281,31.320703099947423,r,1,4.825394700048491,None,,,,,3,001,2024-12-04_14h20.51.707,emotional_stroop,2024.1.5,None,2024-12-04 14h21.01.417473 +0530,
Flower,green,C,g,0,8,8,30,31.33683429984376,,,,,,,,,31.321585699915886,31.33683429984376,31.33683429984376,31.834085299866274,31.85071409982629,33.98544009984471,g,1,2.633376399986446,None,,,,,3,001,2024-12-04_14h20.51.707,emotional_stroop,2024.1.5,None,2024-12-04 14h21.01.417473 +0530,
Hate,green,I,g,0,9,9,22,34.00072679994628,,,,,,,,,33.98631749977358,34.00072679994628,34.00072679994628,34.50073429988697,34.50073429988697,35.885929899988696,g,1,1.8677213001064956,None,,,,,3,001,2024-12-04_14h20.51.707,emotional_stroop,2024.1.5,None,2024-12-04 14h21.01.417473 +0530,
Despair,yellow,I,y,0,10,10,20,35.90078699984588,,,,,,,,,35.88696389994584,35.90078699984588,35.90078699984588,36.40074049984105,36.40074049984105,37.818750499980524,y,1,1.906962800072506,None,,,,,3,001,2024-12-04_14h20.51.707,emotional_stroop,2024.1.5,None,2024-12-04 14h21.01.417473 +0530,
Clock,red,C,r,0,11,11,13,37.833951599895954,,,,,,,,,37.81956439977512,37.833951599895954,37.833951599895954,38.334037699969485,38.334037699969485,39.08563009998761,g,0,1.241100799990818,None,,,,,3,001,2024-12-04_14h20.51.707,emotional_stroop,2024.1.5,None,2024-12-04 14h21.01.417473 +0530,
Guilt,red,I,r,0,12,12,1,39.10064199985936,,,,,,,,,39.0865239999257,39.10064199985936,39.10064199985936,39.6005846997723,39.6005846997723,40.60269829980098,r,1,1.4919188001658767,None,,,,,3,001,2024-12-04_14h20.51.707,emotional_stroop,2024.1.5,None,2024-12-04 14h21.01.417473 +0530,
Anxious,green,I,g,0,13,13,6,40.61791629996151,,,,,,,,,40.603550399886444,40.61791629996151,40.61791629996151,41.11729649989866,41.11729649989866,43.0184776999522,g,1,2.3947864999063313,None,,,,,3,001,2024-12-04_14h20.51.707,emotional_stroop,2024.1.5,None,2024-12-04 14h21.01.417473 +0530,
Cancer,red,I,r,0,14,14,29,43.033953699981794,,,,,,,,,43.019325099885464,43.033953699981794,43.033953699981794,43.53373599983752,43.53373599983752,44.3359394997824,r,1,1.2882187000941485,None,,,,,3,001,2024-12-04_14h20.51.707,emotional_stroop,2024.1.5,None,2024-12-04 14h21.01.417473 +0530,
Failure,yellow,I,y,0,15,15,12,44.3506498998031,,,,,,,,,44.33684299979359,44.3506498998031,44.3506498998031,44.85063449991867,44.85063449991867,46.285122299799696,y,1,1.924768100026995,None,,,,,3,001,2024-12-04_14h20.51.707,emotional_stroop,2024.1.5,None,2024-12-04 14h21.01.417473 +0530,
Sadness,yellow,I,y,0,16,16,4,46.300544099882245,,,,,,,,,46.28593459981494,46.300544099882245,46.300544099882245,46.800585999852046,46.800585999852046,48.30178759992123,y,1,1.993492899928242,None,,,,,3,001,2024-12-04_14h20.51.707,emotional_stroop,2024.1.5,None,2024-12-04 14h21.01.417473 +0530,
Door,green,C,g,0,17,17,26,48.31732109980658,,,,,,,,,48.303107699844986,48.31732109980658,48.31732109980658,48.8170149999205,48.8170149999205,49.66889419988729,g,1,1.3410266998689622,None,,,,,3,001,2024-12-04_14h20.51.707,emotional_stroop,2024.1.5,None,2024-12-04 14h21.01.417473 +0530,
Street,yellow,C,y,0,18,18,0,49.68363969982602,,,,,,,,,49.669916899874806,49.68363969982602,49.68363969982602,50.18390139983967,50.18390139983967,51.26862579979934,y,1,1.5795749998651445,None,,,,,3,001,2024-12-04_14h20.51.707,emotional_stroop,2024.1.5,None,2024-12-04 14h21.01.417473 +0530,
Lonely,red,I,r,0,19,19,17,51.28383919992484,,,,,,,,,51.269441299838945,51.28383919992484,51.28383919992484,51.7836211998947,51.7836211998947,52.885979499900714,r,1,1.5963951000012457,None,,,,,3,001,2024-12-04_14h20.51.707,emotional_stroop,2024.1.5,None,2024-12-04 14h21.01.417473 +0530,
Chalk,yellow,C,y,0,20,20,16,52.900550599908456,,,,,,,,,52.88699289993383,52.900550599908456,52.900550599908456,53.400520799914375,53.400520799914375,54.102016899967566,g,0,1.1855256000999361,None,,,,,3,001,2024-12-04_14h20.51.707,emotional_stroop,2024.1.5,None,2024-12-04 14h21.01.417473 +0530,
Pain,blue,I,b,0,21,21,15,54.117134699830785,,,,,,,,,54.10291579994373,54.117134699830785,54.117134699830785,54.61722529982217,54.61722529982217,55.70188229996711,b,1,1.5754140999633819,None,,,,,3,001,2024-12-04_14h20.51.707,emotional_stroop,2024.1.5,None,2024-12-04 14h21.01.417473 +0530,
Chair,blue,C,b,0,22,22,7,55.717030899832025,,,,,,,,,55.70276159979403,55.717030899832025,55.717030899832025,56.216912399977446,56.216912399977446,57.119115999899805,b,1,1.3983562998473644,None,,,,,3,001,2024-12-04_14h20.51.707,emotional_stroop,2024.1.5,None,2024-12-04 14h21.01.417473 +0530,
Wall,red,C,r,0,23,23,9,57.13591479999013,,,,,,,,,57.1203767999541,57.13591479999013,57.13591479999013,57.63383169984445,57.6501884998288,59.18486649985425,r,1,2.042282900074497,None,,,,,3,001,2024-12-04_14h20.51.707,emotional_stroop,2024.1.5,None,2024-12-04 14h21.01.417473 +0530,
Misery,red,I,r,0,24,24,25,59.200258099939674,,,,,,,,,59.185748799936846,59.200258099939674,59.200258099939674,59.7001622999087,59.7001622999087,60.6351391999051,r,1,1.4259810999501497,None,,,,,3,001,2024-12-04_14h20.51.707,emotional_stroop,2024.1.5,None,2024-12-04 14h21.01.417473 +0530,
Window,blue,C,b,0,25,25,23,60.6503429999575,,,,,,,,,60.63601189991459,60.6503429999575,60.6503429999575,61.15014029992744,61.15014029992744,62.18537459988147,b,1,1.5218229999300092,None,,,,,3,001,2024-12-04_14h20.51.707,emotional_stroop,2024.1.5,None,2024-12-04 14h21.01.417473 +0530,
Terror,yellow,I,y,0,26,26,8,62.20027479995042,,,,,,,,,62.18653229996562,62.20027479995042,62.20027479995042,62.699947299901396,62.699947299901396,64.4356782999821,y,1,2.2265680998098105,None,,,,,3,001,2024-12-04_14h20.51.707,emotional_stroop,2024.1.5,None,2024-12-04 14h21.01.417473 +0530,
Pen,green,C,g,0,27,27,14,64.4504618998617,,,,,,,,,64.43651609984227,64.4504618998617,64.4504618998617,64.95023639989085,64.95023639989085,65.71843709982932,g,1,1.2566377001348883,None,,,,,3,001,2024-12-04_14h20.51.707,emotional_stroop,2024.1.5,None,2024-12-04 14h21.01.417473 +0530,
Book,blue,C,b,0,28,28,11,65.73365579987876,,,,,,,,,65.71942179999314,65.73365579987876,65.73365579987876,66.23396199988201,66.23396199988201,67.15318149980158,r,0,1.4008506999816746,None,,,,,3,001,2024-12-04_14h20.51.707,emotional_stroop,2024.1.5,None,2024-12-04 14h21.01.417473 +0530,
Fear,yellow,I,y,0,29,29,28,67.16722269984894,,,,,,,,,67.15429629990831,67.16722269984894,67.16722269984894,67.6672444997821,67.6672444997821,69.13486549980007,y,1,1.9537037999834865,None,,,,,3,001,2024-12-04_14h20.51.707,emotional_stroop,2024.1.5,None,2024-12-04 14h21.01.417473 +0530,
Murder,green,I,g,0,30,30,18,69.1502914999146,,,,,,,,,69.13569799996912,69.1502914999146,69.1502914999146,69.65006859996356,69.65006859996356,71.88504259986803,g,1,2.725757700158283,None,,,,,3,001,2024-12-04_14h20.51.707,emotional_stroop,2024.1.5,None,2024-12-04 14h21.01.417473 +0530,
,,,,,,,,,,,,,,,,,,,,,,,,,,,71.88591669988818,71.90028669987805,72.90027789981104,72.88465529982932,3,001,2024-12-04_14h20.51.707,emotional_stroop,2024.1.5,None,2024-12-04 14h21.01.417473 +0530,
