word,colour,condition,cor_res,trials.thisRepN,trials.thisTrialN,trials.thisN,trials.thisIndex,thisRow.t,notes,Instruction.started,text_2.started,key_resp_2.started,Instruction.stopped,key_resp_2.keys,key_resp_2.rt,key_resp_2.duration,Trail.started,fixation.started,key_resp.started,text.started,fixation.stopped,Trail.stopped,key_resp.keys,key_resp.corr,key_resp.rt,key_resp.duration,Thank_you.started,text_3.started,text_3.stopped,Thank_you.stopped,participant,session,date,expName,psychopyVersion,frameRate,expStart,
,,,,,,,,,,0.02955939993262291,0.04603169998154044,0.04603169998154044,4.785248199943453,space,4.72783389990218,None,,,,,,,,,,,,,,,6,001,2024-12-04_14h25.53.022,emotional_stroop,2024.1.5,None,2024-12-04 14h26.06.904962 +0530,
Hate,green,I,g,0,0,0,22,4.812060299795121,,,,,,,,,4.798854899825528,4.812060299795121,4.812060299795121,5.2932376998942345,5.326619799947366,6.261564799817279,g,1,1.4466349999420345,None,,,,,6,001,2024-12-04_14h25.53.022,emotional_stroop,2024.1.5,None,2024-12-04 14h26.06.904962 +0530,
Chalk,yellow,C,y,0,1,1,16,6.276800799882039,,,,,,,,,6.263198599917814,6.276800799882039,6.276800799882039,6.7766207999084145,6.7766207999084145,7.861180000007153,y,1,1.5703902998939157,None,,,,,6,001,2024-12-04_14h25.53.022,emotional_stroop,2024.1.5,None,2024-12-04 14h26.06.904962 +0530,
Misery,red,I,r,0,2,2,25,7.876572699984536,,,,,,,,,7.861982999835163,7.876572699984536,7.876572699984536,8.376546199899167,8.376546199899167,9.695175800006837,r,1,1.8036474001128227,None,,,,,6,001,2024-12-04_14h25.53.022,emotional_stroop,2024.1.5,None,2024-12-04 14h26.06.904962 +0530,
Broom,red,C,r,0,3,3,21,9.70990559994243,,,,,,,,,9.696159799816087,9.70990559994243,9.70990559994243,10.209895799867809,10.209895799867809,11.061979999998584,r,1,1.3484412000980228,None,,,,,6,001,2024-12-04_14h25.53.022,emotional_stroop,2024.1.5,None,2024-12-04 14h26.06.904962 +0530,
Flower,green,C,g,0,4,4,30,11.076334999874234,,,,,,,,,11.062976299785078,11.076334999874234,11.076334999874234,11.576427399879321,11.576427399879321,12.427779099904,g,1,1.3362054999452084,None,,,,,6,001,2024-12-04_14h25.53.022,emotional_stroop,2024.1.5,None,2024-12-04 14h26.06.904962 +0530,
Box,red,C,r,0,5,5,5,12.443311400013044,,,,,,,,,12.428601399995387,12.443311400013044,12.443311400013044,12.943202700000256,12.943202700000256,13.54516929993406,r,1,1.0977615001611412,None,,,,,6,001,2024-12-04_14h25.53.022,emotional_stroop,2024.1.5,None,2024-12-04 14h26.06.904962 +0530,
Anxious,green,I,g,0,6,6,6,13.559800299815834,,,,,,,,,13.546179399825633,13.559800299815834,13.559800299815834,14.060038399882615,14.060038399882615,15.227620399789885,g,1,1.6599602000787854,None,,,,,6,001,2024-12-04_14h25.53.022,emotional_stroop,2024.1.5,None,2024-12-04 14h26.06.904962 +0530,
Murder,green,I,g,0,7,7,18,15.24299729987979,,,,,,,,,15.228297999827191,15.24299729987979,15.24299729987979,15.743096999824047,15.743096999824047,17.044582299888134,g,1,1.7866267000790685,None,,,,,6,001,2024-12-04_14h25.53.022,emotional_stroop,2024.1.5,None,2024-12-04 14h26.06.904962 +0530,
Chair,blue,C,b,0,8,8,7,17.059706299798563,,,,,,,,,17.04551439988427,17.059706299798563,17.059706299798563,17.559716899879277,17.559716899879277,18.31098369997926,b,1,1.2438308000564575,None,,,,,6,001,2024-12-04_14h25.53.022,emotional_stroop,2024.1.5,None,2024-12-04 14h26.06.904962 +0530,
Cancer,red,I,r,0,9,9,29,18.326314999954775,,,,,,,,,18.311792299849913,18.326314999954775,18.326314999954775,18.826363699976355,18.826363699976355,20.411582299973816,r,1,2.075112800113857,None,,,,,6,001,2024-12-04_14h25.53.022,emotional_stroop,2024.1.5,None,2024-12-04 14h26.06.904962 +0530,
Pen,green,C,g,0,10,10,14,20.426334099844098,,,,,,,,,20.412528099957854,20.426334099844098,20.426334099844098,20.926344899926335,20.926344899926335,21.661427499959245,g,1,1.2277872001286596,None,,,,,6,001,2024-12-04_14h25.53.022,emotional_stroop,2024.1.5,None,2024-12-04 14h26.06.904962 +0530,
Tree,blue,C,b,0,11,11,27,21.676283499924466,,,,,,,,,21.66227909992449,21.676283499924466,21.676283499924466,22.176336199976504,22.176336199976504,23.161844299873337,b,1,1.4734499000478536,None,,,,,6,001,2024-12-04_14h25.53.022,emotional_stroop,2024.1.5,None,2024-12-04 14h26.06.904962 +0530,
Street,yellow,C,y,0,12,12,0,23.17648659995757,,,,,,,,,23.16304919985123,23.17648659995757,23.17648659995757,23.67617190000601,23.67617190000601,24.745546199847013,y,1,1.5529847999569029,None,,,,,6,001,2024-12-04_14h25.53.022,emotional_stroop,2024.1.5,None,2024-12-04 14h26.06.904962 +0530,
Death,green,I,g,0,13,13,10,24.759720699861646,,,,,,,,,24.74641569983214,24.759720699861646,24.759720699861646,25.25937330001034,25.25937330001034,26.96172839985229,g,1,2.1895133999641985,None,,,,,6,001,2024-12-04_14h25.53.022,emotional_stroop,2024.1.5,None,2024-12-04 14h26.06.904962 +0530,
Dear,blue,C,b,0,14,14,19,26.97622919990681,,,,,,,,,26.96272539999336,26.97622919990681,26.97622919990681,27.476157399825752,27.476157399825752,28.194946500007063,b,1,1.208822599845007,None,,,,,6,001,2024-12-04_14h25.53.022,emotional_stroop,2024.1.5,None,2024-12-04 14h26.06.904962 +0530,
Clock,red,C,r,0,15,15,13,28.20955239981413,,,,,,,,,28.195981099968776,28.20955239981413,28.20955239981413,28.709524899953976,28.709524899953976,29.362163599813357,r,1,1.1479137998539954,None,,,,,6,001,2024-12-04_14h25.53.022,emotional_stroop,2024.1.5,None,2024-12-04 14h26.06.904962 +0530,
Book,blue,C,b,0,16,16,11,29.37619739980437,,,,,,,,,29.36334319994785,29.37619739980437,29.37619739980437,29.876179300015792,29.876179300015792,30.728845399804413,b,1,1.3377462001517415,None,,,,,6,001,2024-12-04_14h25.53.022,emotional_stroop,2024.1.5,None,2024-12-04 14h26.06.904962 +0530,
Sadness,yellow,I,y,0,17,17,4,30.74310309998691,,,,,,,,,30.729840399930254,30.74310309998691,30.74310309998691,31.24302459997125,31.24302459997125,32.72784519987181,y,1,1.9757447000592947,None,,,,,6,001,2024-12-04_14h25.53.022,emotional_stroop,2024.1.5,None,2024-12-04 14h26.06.904962 +0530,
Window,blue,C,b,0,18,18,23,32.74406129983254,,,,,,,,,32.72901499993168,32.74406129983254,32.74406129983254,33.24299479997717,33.24299479997717,34.878123599803075,b,1,2.1198713001795113,None,,,,,6,001,2024-12-04_14h25.53.022,emotional_stroop,2024.1.5,None,2024-12-04 14h26.06.904962 +0530,
Bomb,yellow,I,y,0,19,19,24,34.89277209993452,,,,,,,,,34.87948329979554,34.89277209993452,34.89277209993452,35.39280009991489,35.39280009991489,37.19480779999867,y,1,2.2943814999889582,None,,,,,6,001,2024-12-04_14h25.53.022,emotional_stroop,2024.1.5,None,2024-12-04 14h26.06.904962 +0530,
Terror,yellow,I,y,0,20,20,8,37.20929929986596,,,,,,,,,37.19586759991944,37.20929929986596,37.20929929986596,37.70938859996386,37.70938859996386,39.144901499850675,y,1,1.9180190998595208,None,,,,,6,001,2024-12-04_14h25.53.022,emotional_stroop,2024.1.5,None,2024-12-04 14h26.06.904962 +0530,
Failure,yellow,I,y,0,21,21,12,39.159432699903846,,,,,,,,,39.145696099847555,39.159432699903846,39.159432699903846,39.65929149999283,39.65929149999283,41.3439791998826,y,1,2.167597800027579,None,,,,,6,001,2024-12-04_14h25.53.022,emotional_stroop,2024.1.5,None,2024-12-04 14h26.06.904962 +0530,
Door,green,C,g,0,22,22,26,41.359723899979144,,,,,,,,,41.34495950001292,41.359723899979144,41.359723899979144,41.8593231998384,41.8593231998384,42.64490539999679,g,1,1.2773100000340492,None,,,,,6,001,2024-12-04_14h25.53.022,emotional_stroop,2024.1.5,None,2024-12-04 14h26.06.904962 +0530,
Lonely,red,I,r,0,23,23,17,42.65915049985051,,,,,,,,,42.64595809997991,42.65915049985051,42.65915049985051,43.15938949980773,43.15938949980773,44.09406379982829,r,1,1.4266968998126686,None,,,,,6,001,2024-12-04_14h25.53.022,emotional_stroop,2024.1.5,None,2024-12-04 14h26.06.904962 +0530,
Pain,blue,I,b,0,24,24,15,44.10931500000879,,,,,,,,,44.09497659979388,44.10931500000879,44.10931500000879,44.60954450001009,44.60954450001009,47.67740709986538,b,1,3.5575312001165003,None,,,,,6,001,2024-12-04_14h25.53.022,emotional_stroop,2024.1.5,None,2024-12-04 14h26.06.904962 +0530,
Wall,red,C,r,0,25,25,9,47.692394899902865,,,,,,,,,47.67827679985203,47.692394899902865,47.692394899902865,48.19265169999562,48.19265169999562,50.79462970001623,r,1,3.09362250007689,None,,,,,6,001,2024-12-04_14h25.53.022,emotional_stroop,2024.1.5,None,2024-12-04 14h26.06.904962 +0530,
Fear,yellow,I,y,0,26,26,28,50.80909849982709,,,,,,,,,50.79558639996685,50.80909849982709,50.80909849982709,51.30900079989806,51.30900079989806,52.226965699810535,y,1,1.4101688999217004,None,,,,,6,001,2024-12-04_14h25.53.022,emotional_stroop,2024.1.5,None,2024-12-04 14h26.06.904962 +0530,
Despair,yellow,I,y,0,27,27,20,52.24259289982729,,,,,,,,,52.22766229999252,52.24259289982729,52.24259289982729,52.74258009996265,52.74258009996265,53.928225399926305,y,1,1.6815119001548737,None,,,,,6,001,2024-12-04_14h25.53.022,emotional_stroop,2024.1.5,None,2024-12-04 14h26.06.904962 +0530,
Chalk,green,C,g,0,28,28,2,53.94255979987793,,,,,,,,,53.92922529997304,53.94255979987793,53.94255979987793,54.44257369986735,54.44257369986735,55.179162399843335,g,1,1.23224540008232,None,,,,,6,001,2024-12-04_14h25.53.022,emotional_stroop,2024.1.5,None,2024-12-04 14h26.06.904962 +0530,
School,blue,C,b,0,29,29,3,55.19253110000864,,,,,,,,,55.18029239983298,55.19253110000864,55.19253110000864,55.69246289995499,55.69246289995499,57.14472199999727,b,1,1.94705790001899,None,,,,,6,001,2024-12-04_14h25.53.022,emotional_stroop,2024.1.5,None,2024-12-04 14h26.06.904962 +0530,
Guilt,red,I,r,0,30,30,1,57.16087679984048,,,,,,,,,57.14648319990374,57.16087679984048,57.16087679984048,57.65909229987301,57.675688199931756,58.84389319992624,r,1,1.6748963000718504,None,,,,,6,001,2024-12-04_14h25.53.022,emotional_stroop,2024.1.5,None,2024-12-04 14h26.06.904962 +0530,
,,,,,,,,,,,,,,,,,,,,,,,,,,,58.844537699827924,58.859145499998704,59.85901799984276,59.84346039989032,6,001,2024-12-04_14h25.53.022,emotional_stroop,2024.1.5,None,2024-12-04 14h26.06.904962 +0530,
