delay,freq,condition,trials.thisRepN,trials.thisTrialN,trials.thisN,trials.thisIndex,thisRow.t,notes,trial.started,polygon.started,polygon_2.started,key_resp.started,polygon.stopped,trial.stopped,key_resp.keys,key_resp.rt,key_resp.duration,beep.started,sound_1.started,sound_1.stopped,beep.stopped,response.started,text.started,textbox.started,button.started,response.stopped,textbox.text,button.numClicks,button.timesOn,button.timesOff,participant,session,date,expName,psychopyVersion,frameRate,expStart,
0.7,1000,exp,0,0,0,5,0.027326400391757488,,0.020826600026339293,0.027326400391757488,1.0026283003389835,1.0026283003389835,1.0355717004276812,1.9049475002102554,space,0.8980399998836219,None,1.9071512003429234,2.6191570670964817,2.931500700302422,2.9147942001000047,2.9148329002782702,2.931500700302422,2.931500700302422,2.931500700302422,5.521010600030422,700,1,[2.60265769995749],[2.6026718001812696],1,001,2024-11-13_23h12.02.220,intentional_binding,2024.1.5,None,2024-11-13 23h12.14.890244 +0530,
0.1,1000,exp,0,1,1,6,5.535501600243151,,5.5235838000662625,5.535501600243151,6.535692100413144,6.535692100413144,6.535692100413144,7.270703100133687,space,0.726403099950403,None,7.271919300314039,7.385883466868351,7.701368800364435,7.685201600193977,7.685287500265986,7.701368800364435,7.701368800364435,7.701368800364435,8.837685600388795,100,1,[1.1496354998089373],[1.1496466998942196],1,001,2024-11-13_23h12.02.220,intentional_binding,2024.1.5,None,2024-11-13 23h12.14.890244 +0530,
0.7,400,unexp,0,2,2,2,8.852491800207645,,8.838913300074637,8.852491800207645,9.852544200140983,9.852544200140983,9.852544200140983,11.237201500218362,space,1.3689048998057842,None,11.238154500257224,11.952072366668533,12.264613800216466,12.247383800335228,12.24745330028236,12.264613800216466,12.264613800216466,12.264613800216466,13.78767090011388,400 ,1,[1.5364950997754931],[1.5365078998729587],1,001,2024-11-13_23h12.02.220,intentional_binding,2024.1.5,None,2024-11-13 23h12.14.890244 +0530,
0.1,1000,exp,0,3,3,3,13.802607600111514,,13.789224600419402,13.802607600111514,14.802524200174958,14.802524200174958,14.802524200174958,16.33760690037161,space,1.5252076000906527,None,16.338650200050324,16.452301666668305,16.76027370011434,16.745192700065672,16.745249400381,16.76027370011434,16.76027370011434,16.76027370011434,17.92040830012411,100,1,[1.172684000339359],[1.1726963999681175],1,001,2024-11-13_23h12.02.220,intentional_binding,2024.1.5,None,2024-11-13 23h12.14.890244 +0530,
0.4,1000,exp,0,4,4,7,17.93581770034507,,17.921685500070453,17.93581770034507,18.93542530015111,18.93542530015111,18.93542530015111,19.38653720030561,space,0.4400820001028478,None,19.38766590040177,19.802102666875967,20.110080000013113,20.09483930002898,20.094897700008005,20.110080000013113,20.110080000013113,20.110080000013113,21.58658090000972,100,1,[1.4892484997399151],[1.4892588998191059],1,001,2024-11-13_23h12.02.220,intentional_binding,2024.1.5,None,2024-11-13 23h12.14.890244 +0530,
0.4,1000,exp,0,5,5,4,21.60201600007713,,21.58804740011692,21.60201600007713,22.6024312004447,22.6024312004447,22.6024312004447,22.62033770000562,space,0.006937299855053425,None,22.621027400251478,23.035141866716245,,23.29628250002861,23.296329400036484,23.31463440041989,23.31463440041989,23.31463440041989,24.55429600039497,200,1,[1.2556209000758827],[1.2556348000653088],1,001,2024-11-13_23h12.02.220,intentional_binding,2024.1.5,None,2024-11-13 23h12.14.890244 +0530,
0.4,400,unexp,0,6,6,1,24.56869710003957,,24.555655400268734,24.56869710003957,25.568990900181234,25.568990900181234,25.568990900181234,25.78726700041443,space,0.20620180014520884,None,25.788278700318187,26.201530366732428,,26.484640500042588,26.484681900124997,26.49874320020899,26.49874320020899,26.49874320020899,27.67050200002268,400,1,[1.1836747997440398],[1.1836837995797396],1,001,2024-11-13_23h12.02.220,intentional_binding,2024.1.5,None,2024-11-13 23h12.14.890244 +0530,
0.7,1000,exp,0,7,7,11,27.68511850014329,,27.671395200304687,27.68511850014329,28.685454700142145,28.685454700142145,28.685454700142145,28.98706640023738,space,0.2872795998118818,None,28.988124100025743,29.70194636710609,30.014433700125664,29.99472270021215,29.99477650038898,30.014433700125664,30.014433700125664,30.014433700125664,31.171305400319397,700,1,[1.173617800232023],[1.173636100254953],1,001,2024-11-13_23h12.02.220,intentional_binding,2024.1.5,None,2024-11-13 23h12.14.890244 +0530,
0.4,1000,exp,0,8,8,10,31.185241900384426,,31.173124100081623,31.185241900384426,32.184917100239545,32.184917100239545,32.184917100239545,32.58737900014967,space,0.38965530041605234,None,32.58832640014589,33.00171366666133,33.30964960018173,33.29457790032029,33.294626500457525,33.30964960018173,33.30964960018173,33.30964960018173,34.83785430015996,600,1,[1.5405969000421464],[1.5406148000620306],1,001,2024-11-13_23h12.02.220,intentional_binding,2024.1.5,None,2024-11-13 23h12.14.890244 +0530,
0.1,400,unexp,0,9,9,0,34.852252300363034,,34.839814600069076,34.852252300363034,35.85201660031453,35.85201660031453,35.85201660031453,36.220474400091916,space,0.35460769990459085,None,36.221482700202614,36.335358766900995,36.648868000134826,36.63468730030581,36.63473210018128,36.648868000134826,36.648868000134826,36.648868000134826,37.753097200300545,400,1,[1.1160246999934316],[1.1160363000817597],1,001,2024-11-13_23h12.02.220,intentional_binding,2024.1.5,None,2024-11-13 23h12.14.890244 +0530,
0.1,1000,exp,0,10,10,9,37.76843570033088,,37.75458750035614,37.76843570033088,38.768780200276524,38.768780200276524,38.768780200276524,38.83824970014393,space,0.06457010004669428,None,38.83958180015907,38.95171686687196,39.252549700438976,39.23634890001267,39.236426800023764,39.252549700438976,39.252549700438976,39.252549700438976,40.820600600447506,200,1,[1.5817212001420557],[1.5817331997677684],1,001,2024-11-13_23h12.02.220,intentional_binding,2024.1.5,None,2024-11-13 23h12.14.890244 +0530,
0.7,1000,exp,0,11,11,8,40.83513440005481,,40.82179900025949,40.83513440005481,41.835285500157624,41.835285500157624,41.835285500157624,42.219641300383955,space,0.3683835999108851,None,42.22051970008761,42.93515716685603,43.278024500235915,43.26211870042607,43.262165000196546,43.278024500235915,43.278024500235915,43.278024500235915,44.58747790008783,700,1,[1.3228489998728037],[1.3228671997785568],1,001,2024-11-13_23h12.02.220,intentional_binding,2024.1.5,None,2024-11-13 23h12.14.890244 +0530,
0.7,1000,exp,1,0,12,8,44.60191150009632,,44.58875740040094,44.60191150009632,45.60197760025039,45.60197760025039,45.60197760025039,45.937790600117296,space,0.3302621999755502,None,45.93900470016524,46.651840766953924,46.961114700417966,46.94558000005782,46.945636900141835,46.961114700417966,46.961114700417966,46.961114700417966,48.704598400276154,800,1,[1.755869199987501],[1.7558873002417386],1,001,2024-11-13_23h12.02.220,intentional_binding,2024.1.5,None,2024-11-13 23h12.14.890244 +0530,
0.4,400,unexp,1,1,13,1,48.71852930029854,,48.70615420024842,48.71852930029854,49.71872130036354,49.71872130036354,49.71872130036354,50.104417600203305,space,0.38007119996473193,None,50.10571160027757,50.51821156690518,50.829217500053346,50.81493550026789,50.81499410001561,50.829217500053346,50.829217500053346,50.829217500053346,52.136531400028616,400,1,[1.3190911998972297],[1.3191015999764204],1,001,2024-11-13_23h12.02.220,intentional_binding,2024.1.5,None,2024-11-13 23h12.14.890244 +0530,
0.7,1000,exp,1,2,14,5,52.15168240014464,,52.13815650017932,52.15168240014464,53.15171770006418,53.15171770006418,53.15171770006418,53.50340920034796,space,0.339992499910295,None,53.50451510027051,54.218048266662905,54.53000160027295,54.51502800034359,54.515088700223714,54.53000160027295,54.53000160027295,54.53000160027295,55.620090200100094,500,1,[1.1023411001078784],[1.1023532999679446],1,001,2024-11-13_23h12.02.220,intentional_binding,2024.1.5,None,2024-11-13 23h12.14.890244 +0530,
0.1,1000,exp,1,3,15,9,55.63504070043564,,55.62149849999696,55.63504070043564,56.634860900230706,56.634860900230706,56.634860900230706,57.151295400224626,space,0.5037453998811543,None,57.152386100031435,57.2515647668081,57.558886900078505,57.54463400039822,57.54467590013519,57.558886900078505,57.558886900078505,57.558886900078505,59.10280860029161,100,1,[1.5558021999895573],[1.55581370042637],1,001,2024-11-13_23h12.02.220,intentional_binding,2024.1.5,None,2024-11-13 23h12.14.890244 +0530,
0.4,1000,exp,1,4,16,7,59.11826860019937,,59.10415910044685,59.11826860019937,60.11823660042137,60.11823660042137,60.11823660042137,61.570317200385034,space,1.446864899713546,None,61.57125660032034,61.984628066948304,62.326018100138754,62.31054210010916,62.31058800034225,62.326018100138754,62.326018100138754,62.326018100138754,63.769864400383085,400,1,[1.4567487998865545],[1.4567652000114322],1,001,2024-11-13_23h12.02.220,intentional_binding,2024.1.5,None,2024-11-13 23h12.14.890244 +0530,
0.7,1000,exp,1,5,17,11,63.78496260009706,,63.77138960035518,63.78496260009706,64.78501950018108,64.78501950018108,64.78501950018108,65.13418550044298,space,0.3335106000304222,None,65.13508460018784,65.83440556709344,66.1563484002836,66.13524980004877,66.13530320022255,66.1563484002836,66.1563484002836,66.1563484002836,67.8368455003947,700,1,[1.6983782001771033],[1.6983940000645816],1,001,2024-11-13_23h12.02.220,intentional_binding,2024.1.5,None,2024-11-13 23h12.14.890244 +0530,
0.4,1000,exp,1,6,18,4,67.85148900002241,,67.83825030038133,67.85148900002241,68.85162860015407,68.85162860015407,68.85162860015407,69.16956120030954,space,0.2983900997787714,None,69.17051560012624,69.58422926679874,,69.86506410036236,69.86510650021955,69.88066920032725,69.88066920032725,69.88066920032725,71.48771170014516,100,1,[1.6196272000670433],[1.6196425999514759],1,001,2024-11-13_23h12.02.220,intentional_binding,2024.1.5,None,2024-11-13 23h12.14.890244 +0530,
0.1,1000,exp,1,7,19,6,71.50162670016289,,71.48910870030522,71.50162670016289,72.50135040003806,72.50135040003806,72.50135040003806,72.85358920041472,space,0.3412353000603616,None,72.85467910021544,72.9680296667541,73.2821914004162,73.26528390031308,73.26532280026004,73.2821914004162,73.2821914004162,73.2821914004162,74.30325880041346,600,1,[1.0356807997450233],[1.0356899998150766],1,001,2024-11-13_23h12.02.220,intentional_binding,2024.1.5,None,2024-11-13 23h12.14.890244 +0530,
0.1,400,unexp,1,8,20,0,74.31803870014846,,74.30419930024073,74.31803870014846,75.31754810037091,75.31754810037091,75.31754810037091,75.55349160032347,space,0.2330872998572886,None,75.5543724000454,75.66766886698703,75.97982520004734,75.96550930012017,75.96555290045217,75.97982520004734,75.97982520004734,75.97982520004734,77.76912230020389,400,1,[1.8010732997208834],[1.8010845999233425],1,001,2024-11-13_23h12.02.220,intentional_binding,2024.1.5,None,2024-11-13 23h12.14.890244 +0530,
0.4,1000,exp,1,9,21,10,77.78430730011314,,77.77044740039855,77.78430730011314,78.78463820042089,78.78463820042089,78.78463820042089,79.03720080014318,space,0.2400016998872161,None,79.0386398001574,79.45124016708384,79.75867530005053,79.74453040026128,79.74456990044564,79.75867530005053,79.75867530005053,79.75867530005053,80.85309910029173,500,1,[1.1060450002551079],[1.106057200115174],1,001,2024-11-13_23h12.02.220,intentional_binding,2024.1.5,None,2024-11-13 23h12.14.890244 +0530,
0.1,1000,exp,1,10,22,3,80.86762360017747,,80.85476120002568,80.86762360017747,81.86780380038545,81.86780380038545,81.86780380038545,82.10289540002123,space,0.22641879972070456,None,82.10368120018393,82.21786106710012,82.53155040042475,82.51544660003856,82.51550300000235,82.53155040042475,82.53155040042475,82.53155040042475,83.7035223999992,300,1,[1.1848150002770126],[1.1848300001583993],1,001,2024-11-13_23h12.02.220,intentional_binding,2024.1.5,None,2024-11-13 23h12.14.890244 +0530,
0.7,400,unexp,1,11,23,2,83.71775620011613,,83.7058146004565,83.71775620011613,84.71759030036628,84.71759030036628,84.71759030036628,85.01935860002413,space,0.2971927998587489,None,85.02015790017322,85.73435816687221,86.03949040034786,86.0246704001911,86.02471750043333,86.03949040034786,86.03949040034786,86.03949040034786,87.05312520032749,700,1,[1.0261091003194451],[1.0261242003180087],1,001,2024-11-13_23h12.02.220,intentional_binding,2024.1.5,None,2024-11-13 23h12.14.890244 +0530,
0.7,1000,exp,2,0,24,8,87.06756430026144,,87.05472180014476,87.06756430026144,88.06775990035385,88.06775990035385,88.06775990035385,88.42003050027415,space,0.3350603999570012,None,88.42105840006843,89.13415756688143,89.44022310012951,89.42486790008843,89.4249162003398,89.44022310012951,89.44022310012951,89.44022310012951,91.30320880003273,800,1,[1.875291199889034],[1.8753034002147615],1,001,2024-11-13_23h12.02.220,intentional_binding,2024.1.5,None,2024-11-13 23h12.14.890244 +0530,
0.7,1000,exp,2,1,25,11,91.31778320018202,,91.3045970001258,91.31778320018202,92.31731890002266,92.31731890002266,92.31731890002266,92.6523084002547,space,0.3287602998316288,None,92.65306500019506,93.3676156667682,93.67816180037335,93.66469390038401,93.66476260032505,93.67816180037335,93.67816180037335,93.67816180037335,96.33626600028947,400,1,[2.6691033001989126],[2.6691195000894368],1,001,2024-11-13_23h12.02.220,intentional_binding,2024.1.5,None,2024-11-13 23h12.14.890244 +0530,
0.4,1000,exp,2,2,26,4,96.35109770018607,,96.33738900022581,96.35109770018607,97.35096450010315,97.35096450010315,97.35096450010315,97.4195303004235,space,0.0654353997670114,None,97.420442300383,97.83419236686701,98.13503830041736,98.11975790001452,98.1197950001806,98.13503830041736,98.13503830041736,98.13503830041736,99.1537572001107,400,1,[1.0314368000254035],[1.0314507000148296],1,001,2024-11-13_23h12.02.220,intentional_binding,2024.1.5,None,2024-11-13 23h12.14.890244 +0530,
0.4,1000,exp,2,3,27,7,99.1676033004187,,99.15534710045904,99.1676033004187,100.16745340032503,100.16745340032503,100.16745340032503,100.48572420002893,space,0.30200859997421503,None,100.48664670018479,100.90073576668898,101.21933130035177,101.20073800021783,101.20080450037494,101.21933130035177,101.21933130035177,101.21933130035177,102.31921620015055,500,1,[1.1152904001064599],[1.115300000179559],1,001,2024-11-13_23h12.02.220,intentional_binding,2024.1.5,None,2024-11-13 23h12.14.890244 +0530,
0.1,1000,exp,2,4,28,9,102.33422469999641,,102.32020810013637,102.33422469999641,103.33404109999537,103.33404109999537,103.33404109999537,112.8859302001074,space,9.536952099762857,None,112.88688110001385,113.00065616710732,113.33909530006349,113.32427219999954,113.32432220038027,113.33909530006349,113.33909530006349,113.33909530006349,114.60308740008622,300,1,[1.2763820001855493],[1.2763979001902044],1,001,2024-11-13_23h12.02.220,intentional_binding,2024.1.5,None,2024-11-13 23h12.14.890244 +0530,
0.4,1000,exp,2,5,29,10,114.61759340018034,,114.60442750016227,114.61759340018034,115.61756870010868,115.61756870010868,115.61756870010868,115.85202550003305,space,0.22972900001332164,None,115.85279260016978,116.2672162671263,116.57897090027109,116.56467040022835,116.56472450029105,116.57897090027109,116.57897090027109,116.57897090027109,117.4196431003511,400,1,[0.8525240002200007],[0.8525380999781191],1,001,2024-11-13_23h12.02.220,intentional_binding,2024.1.5,None,2024-11-13 23h12.14.890244 +0530,
0.7,1000,exp,2,6,30,5,117.43386140000075,,117.42095490032807,117.43386140000075,118.43371330015361,118.43371330015361,118.43371330015361,119.0859101000242,space,0.6419104998931289,None,119.08683080039918,119.80033746693904,120.10987570043653,120.09455860033631,120.09460200043395,120.10987570043653,120.10987570043653,120.10987570043653,121.97080170037225,700 ,1,[1.8732791999354959],[1.8733409997075796],1,001,2024-11-13_23h12.02.220,intentional_binding,2024.1.5,None,2024-11-13 23h12.14.890244 +0530,
0.7,400,unexp,2,7,31,2,121.9842837001197,,121.97198140015826,121.9842837001197,122.98374760011211,122.98374760011211,122.98374760011211,124.73500380013138,space,1.7356712999753654,None,124.73581420024857,125.44796186691771,125.7588490000926,125.74451100034639,125.74456150038168,125.7588490000926,125.7588490000926,125.7588490000926,127.1188964000903,700,1,[1.371665499638766],[1.3716782997362316],1,001,2024-11-13_23h12.02.220,intentional_binding,2024.1.5,None,2024-11-13 23h12.14.890244 +0530,
0.1,1000,exp,2,8,32,3,127.13370530027896,,127.12031370028853,127.13370530027896,128.13379220012575,128.13379220012575,128.13379220012575,128.7691631000489,space,0.6238239002414048,None,128.77023820020258,128.88381996710476,129.1905559003353,129.1751684001647,129.1752135003917,129.1905559003353,129.1905559003353,129.1905559003353,130.4859645003453,300,1,[1.3084005997516215],[1.3084144997410476],1,001,2024-11-13_23h12.02.220,intentional_binding,2024.1.5,None,2024-11-13 23h12.14.890244 +0530,
0.4,400,unexp,2,9,33,1,130.50033990014344,,130.48723260033876,130.50033990014344,131.50013920012861,131.50013920012861,131.50013920012861,131.68577280035242,space,0.18020919989794493,None,131.6867673001252,132.09992246708524,132.41228840034455,132.39514200016856,132.39519640011713,132.41228840034455,132.41228840034455,132.41228840034455,133.90283989999443,400,1,[1.504879199899733],[1.504894900135696],1,001,2024-11-13_23h12.02.220,intentional_binding,2024.1.5,None,2024-11-13 23h12.14.890244 +0530,
0.1,400,unexp,2,10,34,0,133.917085100431,,133.90417300025,133.917085100431,134.9171334002167,134.9171334002167,134.9171334002167,134.98626130027696,space,0.06093339994549751,None,134.98727180017158,135.10004056670394,135.41194800008088,135.397546000313,135.39758340036497,135.41194800008088,135.41194800008088,135.41194800008088,136.9683873001486,400,1,[1.5686735999770463],[1.5686857998371124],1,001,2024-11-13_23h12.02.220,intentional_binding,2024.1.5,None,2024-11-13 23h12.14.890244 +0530,
0.1,1000,exp,2,11,35,6,136.983329300303,,136.96979330014437,136.983329300303,137.9832791001536,137.9832791001536,137.9832791001536,138.58514440013096,space,0.5947171999141574,None,138.58616000041366,138.6999951666842,139.0095067000948,138.99468830041587,138.99476800020784,139.0095067000948,139.0095067000948,139.0095067000948,141.0518669001758,200,1,[2.054452100303024],[2.0544632002711296],1,001,2024-11-13_23h12.02.220,intentional_binding,2024.1.5,None,2024-11-13 23h12.14.890244 +0530,
0.4,1000,exp,3,0,36,10,141.06696760002524,,141.0531512000598,141.06696760002524,142.0670516001992,142.0670516001992,142.0670516001992,142.11950150039047,space,0.047436599619686604,None,142.1206579003483,142.53351386689272,142.83964470028877,142.82487560017034,142.82492570020258,142.83964470028877,142.83964470028877,142.83964470028877,143.8186249001883,400,1,[0.990699099842459],[0.9907089998014271],1,001,2024-11-13_23h12.02.220,intentional_binding,2024.1.5,None,2024-11-13 23h12.14.890244 +0530,
0.7,400,unexp,3,1,37,2,143.8332526003942,,143.81990480003878,143.8332526003942,144.83347650012,144.83347650012,144.83347650012,145.68480250006542,space,0.8470403999090195,None,145.6855483003892,146.39998516679432,146.70741520030424,146.69146370003,146.691519100219,146.70741520030424,146.70741520030424,146.70741520030424,148.00208900030702,700,1,[1.3080752003006637],[1.3080872003920376],1,001,2024-11-13_23h12.02.220,intentional_binding,2024.1.5,None,2024-11-13 23h12.14.890244 +0530,
0.7,1000,exp,3,2,38,11,148.01698480034247,,148.0034394999966,148.01698480034247,149.01647360017523,149.01647360017523,149.01647360017523,149.46805090038106,space,0.44422499975189567,None,149.46882510045543,150.1834832667994,150.48927460005507,150.47447200026363,150.47452390007675,150.48927460005507,150.48927460005507,150.48927460005507,151.7349080001004,900,1,[1.2579926000908017],[1.258006100077182],1,001,2024-11-13_23h12.02.220,intentional_binding,2024.1.5,None,2024-11-13 23h12.14.890244 +0530,
0.1,1000,exp,3,3,39,3,151.7501022000797,,151.73667190037668,151.7501022000797,152.75005360040814,152.75005360040814,152.75005360040814,153.2678320002742,space,0.5118696996942163,None,153.26860520010814,153.38049636694294,,153.6502826004289,153.6503398003988,153.6656171004288,153.6656171004288,153.6656171004288,155.38539520045742,400,1,[1.7322276001796126],[1.732242500409484],1,001,2024-11-13_23h12.02.220,intentional_binding,2024.1.5,None,2024-11-13 23h12.14.890244 +0530,
0.4,400,unexp,3,4,40,1,155.3999610003084,,155.3866738001816,155.3999610003084,156.4000145001337,156.4000145001337,156.4000145001337,156.96814530016854,space,0.5617770999670029,None,156.9688055003062,157.38265816687297,,157.63665190013126,157.6367043000646,157.65587010001764,157.65587010001764,157.65587010001764,160.4012851002626,400,1,[2.761725100222975],[2.7617360004223883],1,001,2024-11-13_23h12.02.220,intentional_binding,2024.1.5,None,2024-11-13 23h12.14.890244 +0530,
0.4,1000,exp,3,5,41,4,160.4166033002548,,160.4026910001412,160.4166033002548,161.41417860006914,161.41417860006914,161.43081060005352,161.86902940040454,space,0.4526395001448691,None,161.86986120045185,162.28325926704954,162.58919530035928,162.57452890044078,162.5745741003193,162.58919530035928,162.58919530035928,162.58919530035928,163.817915300373,300,1,[1.2411552998237312],[1.2411678000353277],1,001,2024-11-13_23h12.02.220,intentional_binding,2024.1.5,None,2024-11-13 23h12.14.890244 +0530,
0.4,1000,exp,3,6,42,7,163.8332222001627,,163.81975240027532,163.8332222001627,164.83305700030178,164.83305700030178,164.83305700030178,165.28468230040744,space,0.44111730018630624,None,165.28582800040022,165.69971826678764,166.0110104000196,165.99479160038754,165.9948527002707,166.0110104000196,166.0110104000196,166.0110104000196,167.60217610001564,200,1,[1.6032628999091685],[1.6032773000188172],1,001,2024-11-13_23h12.02.220,intentional_binding,2024.1.5,None,2024-11-13 23h12.14.890244 +0530,
0.7,1000,exp,3,7,43,8,167.61628760024905,,167.6042278003879,167.61628760024905,168.61646510008723,168.61646510008723,168.61646510008723,169.25111480010673,space,0.6240372997708619,None,169.25188870029524,169.96627776703488,170.27967840014026,170.26471350016072,170.2647759001702,170.27967840014026,170.27967840014026,170.27967840014026,213.3677648003213,300,1,[43.100389199797064],[43.100404100026935],1,001,2024-11-13_23h12.02.220,intentional_binding,2024.1.5,None,2024-11-13 23h12.14.890244 +0530,
0.1,1000,exp,3,8,44,9,213.38193430006504,,213.3690804000944,213.38193430006504,214.38225370040163,214.38225370040163,214.38225370040163,214.88422620017081,space,0.497339999768883,None,214.8853066000156,214.99866666697588,215.3095628004521,215.29437360027805,215.2944237003103,215.3095628004521,215.3095628004521,215.3095628004521,216.9349850001745,100,1,[1.6374323000200093],[1.6374476999044418],1,001,2024-11-13_23h12.02.220,intentional_binding,2024.1.5,None,2024-11-13 23h12.14.890244 +0530,
0.1,1000,exp,3,9,45,6,216.94905150029808,,216.93676520045847,216.94905150029808,217.94907430000603,217.94907430000603,217.94907430000603,218.08469580020756,space,0.13333649979904294,None,218.0861109001562,218.1986034666809,218.51469470001757,218.49985430017114,218.49990730034187,218.51469470001757,218.51469470001757,218.51469470001757,219.90046190004796,200,1,[1.3984346999786794],[1.3984495997428894],1,001,2024-11-13_23h12.02.220,intentional_binding,2024.1.5,None,2024-11-13 23h12.14.890244 +0530,
0.1,400,unexp,3,10,46,0,219.9154346003197,,219.90186200011522,219.9154346003197,220.91553390026093,220.91553390026093,220.91553390026093,221.30045330012217,space,0.377636999823153,None,221.3012952003628,221.4131539669509,221.7279859003611,221.71422140020877,221.71426230017096,221.7279859003611,221.7279859003611,221.7279859003611,222.68309700023383,400,1,[0.9665406998246908],[0.9665509997867048],1,001,2024-11-13_23h12.02.220,intentional_binding,2024.1.5,None,2024-11-13 23h12.14.890244 +0530,
0.7,1000,exp,3,11,47,5,222.69857360003516,,222.6847418001853,222.69857360003516,223.6988318003714,223.6988318003714,223.6988318003714,224.0840453002602,space,0.3713407996110618,None,224.08499980019405,224.79839676671352,225.1097316001542,225.09439680026844,225.0944403000176,225.1097316001542,225.1097316001542,225.1097316001542,226.05128840031102,700,1,[0.9535750998184085],[0.9535920997150242],1,001,2024-11-13_23h12.02.220,intentional_binding,2024.1.5,None,2024-11-13 23h12.14.890244 +0530,
0.4,400,unexp,4,0,48,1,226.06558500044048,,226.05270130001009,226.06558500044048,227.06555550033227,227.06555550033227,227.06555550033227,227.56654130015522,space,0.48760110000148416,None,227.56732120038942,227.98196166666847,228.2884227000177,228.27401300007477,228.2740570004098,228.2884227000177,228.2884227000177,228.2884227000177,229.56758000003174,700,1,[1.2910139998421073],[1.2910322998650372],1,001,2024-11-13_23h12.02.220,intentional_binding,2024.1.5,None,2024-11-13 23h12.14.890244 +0530,
0.4,1000,exp,4,1,49,10,229.58163000037894,,229.56880220025778,229.58163000037894,230.58188360044733,230.58188360044733,230.58188360044733,231.03372880024835,space,0.4446192001923919,None,231.03490690002218,231.44849916693445,231.75876010023057,231.7441603001207,231.74420440010726,231.75876010023057,231.75876010023057,231.75876010023057,233.5337597001344,800,1,[1.7864565001800656],[1.7864649002440274],1,001,2024-11-13_23h12.02.220,intentional_binding,2024.1.5,None,2024-11-13 23h12.14.890244 +0530,
0.7,1000,exp,4,2,50,11,233.54879540018737,,233.53483360027894,233.54879540018737,234.5486024003476,234.5486024003476,234.5486024003476,234.74993890011683,space,0.1977737001143396,None,234.75072590028867,235.4650944667558,235.77841860009357,235.7642450002022,235.7642874000594,235.77841860009357,235.77841860009357,235.77841860009357,236.8503047004342,100,1,[1.0836670002900064],[1.0836809002794325],1,001,2024-11-13_23h12.02.220,intentional_binding,2024.1.5,None,2024-11-13 23h12.14.890244 +0530,
0.7,1000,exp,4,3,51,8,236.86510940035805,,236.85198990022764,236.86510940035805,237.8654525000602,237.8654525000602,237.8654525000602,238.150276100263,space,0.27987120021134615,None,238.1511244000867,238.86512616702046,239.17820430034772,239.16414180025458,239.164181700442,239.17820430034772,239.17820430034772,239.17820430034772,240.36733620008454,700,1,[1.2007885002531111],[1.2008036999031901],1,001,2024-11-13_23h12.02.220,intentional_binding,2024.1.5,None,2024-11-13 23h12.14.890244 +0530,
0.4,1000,exp,4,4,52,7,240.38158720033243,,240.36924200039357,240.38158720033243,241.38186380034313,241.38186380034313,241.38186380034313,241.73182680038735,space,0.33929189993068576,None,241.73305680043995,242.14817226684343,242.4605016000569,242.444410700351,242.44448120007291,242.4605016000569,242.4605016000569,242.4605016000569,244.63354590022936,400,1,[2.1853979998268187],[2.1854119999334216],1,001,2024-11-13_23h12.02.220,intentional_binding,2024.1.5,None,2024-11-13 23h12.14.890244 +0530,
0.4,1000,exp,4,5,53,4,244.648570000194,,244.6356193004176,244.648570000194,245.64602880040184,245.64602880040184,245.6629109000787,245.78344220016152,space,0.1291193999350071,None,245.78446980006993,246.19794006698456,246.5311704003252,246.51629790011793,246.51633530016989,246.5311704003252,246.5311704003252,246.5311704003252,247.6348669002764,500,1,[1.1160575998947024],[1.1160729001276195],1,001,2024-11-13_23h12.02.220,intentional_binding,2024.1.5,None,2024-11-13 23h12.14.890244 +0530,
0.7,400,unexp,4,6,54,2,247.64831680012867,,247.6365633001551,247.64831680012867,248.6483084000647,248.6483084000647,248.6483084000647,249.08298150030896,space,0.41879309993237257,None,249.08381440024823,249.79844936688121,250.1093386001885,250.0943519002758,250.09440800035372,250.1093386001885,250.1093386001885,250.1093386001885,251.61718610022217,700,1,[1.5198329999111593],[1.5198512999340892],1,001,2024-11-13_23h12.02.220,intentional_binding,2024.1.5,None,2024-11-13 23h12.14.890244 +0530,
0.1,1000,exp,4,7,55,6,251.63166300021112,,251.61849220003933,251.63166300021112,252.63173850020394,252.63173850020394,252.63173850020394,253.00043010013178,space,0.357313500251621,None,253.00161760021,253.1144037671077,253.4289615000598,253.41437500016764,253.41441670013592,253.4289615000598,253.4289615000598,253.4289615000598,255.61682780040428,800,1,[2.1995115000754595],[2.199522899929434],1,001,2024-11-13_23h12.02.220,intentional_binding,2024.1.5,None,2024-11-13 23h12.14.890244 +0530,
0.1,400,unexp,4,8,56,0,255.63155310042202,,255.6183055001311,255.63155310042202,256.6314494004473,256.6314494004473,256.6314494004473,257.5326743000187,space,0.8942780997604132,None,257.53351000044495,257.6479438669669,257.9582409001887,257.94413110008463,257.9441802003421,257.9582409001887,257.9582409001887,257.9582409001887,259.5671575004235,600,1,[1.6198001001030207],[1.6198128000833094],1,001,2024-11-13_23h12.02.220,intentional_binding,2024.1.5,None,2024-11-13 23h12.14.890244 +0530,
0.1,1000,exp,4,9,57,9,259.5816377000883,,259.5692153000273,259.5816377000883,260.58173750014976,260.58173750014976,260.58173750014976,261.09987140027806,space,0.5057446002028883,None,261.1009499002248,261.2145523667025,261.53397740004584,261.5185326002538,261.51859150035307,261.53397740004584,261.53397740004584,261.53397740004584,263.84935040026903,500,1,[2.3286452000029385],[2.328659300226718],1,001,2024-11-13_23h12.02.220,intentional_binding,2024.1.5,None,2024-11-13 23h12.14.890244 +0530,
0.1,1000,exp,4,10,58,3,263.86460220022127,,263.85072210012004,263.86460220022127,264.86468040011823,264.86468040011823,264.86468040011823,265.315969100222,space,0.44073900021612644,None,265.3167400001548,265.4311780669416,265.7396843000315,265.72433190001175,265.72438160004094,265.7396843000315,265.7396843000315,265.7396843000315,267.81699500000104,400,1,[2.089219099842012],[2.0892384997569025],1,001,2024-11-13_23h12.02.220,intentional_binding,2024.1.5,None,2024-11-13 23h12.14.890244 +0530,
0.7,1000,exp,4,11,59,5,267.8310818001628,,267.81901290034875,267.8310818001628,268.8314070003107,268.8314070003107,268.8314070003107,269.5002591004595,space,0.6664438000880182,None,269.5012112003751,270.2143803667898,270.53814050043,270.51789910020307,270.5179368001409,270.53814050043,270.53814050043,270.53814050043,271.6993790003471,600,1,[1.1790116000920534],[1.1790227997116745],1,001,2024-11-13_23h12.02.220,intentional_binding,2024.1.5,None,2024-11-13 23h12.14.890244 +0530,
0.4,1000,exp,5,0,60,10,271.7147585004568,,271.70073770033196,271.7147585004568,272.7147569004446,272.7147569004446,272.7147569004446,273.1990794003941,space,0.47866619983687997,None,273.1997928000055,273.61430326669165,273.92823760025203,273.9144443003461,273.9144888003357,273.92823760025203,273.92823760025203,273.92823760025203,275.3654808001593,700,1,[1.4488552999682724],[1.4488665000535548],1,001,2024-11-13_23h12.02.220,intentional_binding,2024.1.5,None,2024-11-13 23h12.14.890244 +0530,
0.4,1000,exp,5,1,61,7,275.38081600004807,,275.36700370023027,275.38081600004807,276.3811581004411,276.3811581004411,276.3811581004411,276.54904030030593,space,0.15801090002059937,None,276.54978250013664,276.9642127669106,277.27878490043804,277.2640309003182,277.26407490018755,277.27878490043804,277.27878490043804,277.27878490043804,279.03393940022215,600,1,[1.7665893998928368],[1.7666024998761714],1,001,2024-11-13_23h12.02.220,intentional_binding,2024.1.5,None,2024-11-13 23h12.14.890244 +0530,
0.7,1000,exp,5,2,62,11,279.0478164004162,,279.0352997002192,279.0478164004162,280.04773830017075,280.04773830017075,280.04773830017075,280.3174964003265,space,0.2585252998396754,None,280.3191475002095,281.0310093667979,281.33959430037066,281.3243096000515,281.3243756000884,281.33959430037066,281.33959430037066,281.33959430037066,282.2997073000297,900,1,[0.9726562001742423],[0.9726713998243213],1,001,2024-11-13_23h12.02.220,intentional_binding,2024.1.5,None,2024-11-13 23h12.14.890244 +0530,
0.7,1000,exp,5,3,63,8,282.31454070005566,,282.30112680001184,282.31454070005566,283.3143068002537,283.3143068002537,283.3143068002537,283.54966810019687,space,0.22423320030793548,None,283.5506776003167,284.264256566825,284.57677000015974,284.5608344003558,284.56111220037565,284.57677000015974,284.57677000015974,284.57677000015974,285.7656013001688,900,1,[1.2020219997502863],[1.2020351998507977],1,001,2024-11-13_23h12.02.220,intentional_binding,2024.1.5,None,2024-11-13 23h12.14.890244 +0530,
0.4,400,unexp,5,4,64,1,285.78090020036325,,285.7672762000002,285.78090020036325,286.7810661001131,286.7810661001131,286.7810661001131,287.18321260018274,space,0.39305009972304106,None,287.1843569003977,287.5974958670015,287.9080568002537,287.8941962001845,287.894303700421,287.9080568002537,287.9080568002537,287.9080568002537,290.33458830043674,400,1,[2.4374019000679255],[2.437419699970633],1,001,2024-11-13_23h12.02.220,intentional_binding,2024.1.5,None,2024-11-13 23h12.14.890244 +0530,
0.1,1000,exp,5,5,65,9,290.34757150011137,,290.3361361003481,290.34757150011137,291.3472799002193,291.3472799002193,291.3472799002193,292.0163127002306,space,0.6577396998181939,None,292.0174237000756,292.13072576705986,292.4403228000738,292.42443890031427,292.4244996001944,292.4403228000738,292.4403228000738,292.4403228000738,293.94916220009327,500,1,[1.521985899657011],[1.5220003998838365],1,001,2024-11-13_23h12.02.220,intentional_binding,2024.1.5,None,2024-11-13 23h12.14.890244 +0530,
0.7,400,unexp,5,6,66,2,293.96415240038186,,293.95044420007616,293.96415240038186,294.96403030026704,294.96403030026704,294.96403030026704,295.64881850034,space,0.6732776998542249,None,295.6496205003932,296.3638235671135,296.67868530005217,296.6647790004499,296.6648268001154,296.67868530005217,296.67868530005217,296.67868530005217,298.06590190017596,700,1,[1.3988112001679838],[1.3988354997709394],1,001,2024-11-13_23h12.02.220,intentional_binding,2024.1.5,None,2024-11-13 23h12.14.890244 +0530,
0.7,1000,exp,5,7,67,5,298.0807257001288,,298.0672601000406,298.0807257001288,299.0807910002768,299.0807910002768,299.0807910002768,299.58248580014333,space,0.4865143997594714,None,299.58357630018145,300.29731736710914,300.6104646003805,300.59465930005535,300.5947183002718,300.6104646003805,300.6104646003805,300.6104646003805,302.49850780004635,600,1,[1.9013097998686135],[1.901320899836719],1,001,2024-11-13_23h12.02.220,intentional_binding,2024.1.5,None,2024-11-13 23h12.14.890244 +0530,
0.1,1000,exp,5,8,68,6,302.5137296002358,,302.49985350016505,302.5137296002358,303.513732700143,303.513732700143,303.513732700143,304.14919340005144,space,0.6292449999600649,None,304.15023500006646,304.26365046675005,304.57701160013676,304.5622753002681,304.5623135003261,304.57701160013676,304.57701160013676,304.57701160013676,306.1331929001026,400,1,[1.5682004000991583],[1.5682147997431457],1,001,2024-11-13_23h12.02.220,intentional_binding,2024.1.5,None,2024-11-13 23h12.14.890244 +0530,
0.4,1000,exp,5,9,69,4,306.14706310024485,,306.13539510034025,306.14706310024485,307.14726800005883,307.14726800005883,307.14726800005883,307.4493651003577,space,0.297348799649626,None,307.45043840026483,307.8635257669414,308.1791282002814,308.1645273002796,308.1645695003681,308.1791282002814,308.1791282002814,308.1791282002814,309.2663301001303,700,1,[1.099326299969107],[1.0993395000696182],1,001,2024-11-13_23h12.02.220,intentional_binding,2024.1.5,None,2024-11-13 23h12.14.890244 +0530,
0.1,1000,exp,5,10,70,3,309.28047320013866,,309.26773330010474,309.28047320013866,310.280492100399,310.280492100399,310.280492100399,311.3827662002295,space,1.0846903999336064,None,311.3839143002406,311.4973715670096,311.80797080043703,311.79423440014943,311.79428390040994,311.80797080043703,311.80797080043703,311.80797080043703,313.0827989000827,600,1,[1.2859489996917546],[1.2859599995426834],1,001,2024-11-13_23h12.02.220,intentional_binding,2024.1.5,None,2024-11-13 23h12.14.890244 +0530,
0.1,400,unexp,5,11,71,0,313.0973875001073,,313.08471450023353,313.0973875001073,314.09712380031124,314.09712380031124,314.09712380031124,314.61578940041363,space,0.5041612000204623,None,314.6168698002584,314.7306477670247,315.0526051004417,315.03569210041314,315.0357348001562,315.0526051004417,315.0526051004417,315.0526051004417,316.7985804001801,500,1,[1.7604563003405929],[1.7604677001945674],1,001,2024-11-13_23h12.02.220,intentional_binding,2024.1.5,None,2024-11-13 23h12.14.890244 +0530,
0.1,1000,exp,6,0,72,9,316.8139397003688,,316.8000422003679,316.8139397003688,317.81387940002605,317.81387940002605,317.81387940002605,319.0162306004204,space,1.187370500061661,None,319.0173145001754,319.1303652669924,319.4993867003359,319.4787237001583,319.4787931004539,319.4993867003359,319.4993867003359,319.4993867003359,321.31566930003464,400,1,[1.8337047998793423],[1.8337153000757098],1,001,2024-11-13_23h12.02.220,intentional_binding,2024.1.5,None,2024-11-13 23h12.14.890244 +0530,
0.7,1000,exp,6,1,73,5,321.33050670009106,,321.31725730001926,321.33050670009106,322.3303536004387,322.3303536004387,322.3303536004387,322.81613859999925,space,0.4817661000415683,None,322.81720930011943,323.5300075668531,323.8399468003772,323.82455070037395,323.8246325002983,323.8399468003772,323.8399468003772,323.8399468003772,325.18377510039136,700,1,[1.3563137999735773],[1.3563305996358395],1,001,2024-11-13_23h12.02.220,intentional_binding,2024.1.5,None,2024-11-13 23h12.14.890244 +0530,
0.7,1000,exp,6,2,74,8,325.1966596003622,,325.18509790021926,325.1966596003622,326.1968894000165,326.1968894000165,326.1968894000165,326.7339944001287,space,0.533389899879694,None,326.7350661000237,327.4471241669419,327.7589268004522,327.7443657000549,327.7444137004204,327.7589268004522,327.7589268004522,327.7589268004522,329.18260330008343,700,1,[1.4356853999197483],[1.4356971001252532],1,001,2024-11-13_23h12.02.220,intentional_binding,2024.1.5,None,2024-11-13 23h12.14.890244 +0530,
0.4,1000,exp,6,3,75,4,329.19654920045286,,329.1839455002919,329.19654920045286,330.1970585002564,330.1970585002564,330.1970585002564,331.84866740042344,space,1.6347423000261188,None,331.8495353003964,332.26328056684383,332.57707380037755,332.5572930001654,332.5573292002082,332.57707380037755,332.57707380037755,332.57707380037755,333.61551300017163,500,1,[1.0555084999650717],[1.0555261997506022],1,001,2024-11-13_23h12.02.220,intentional_binding,2024.1.5,None,2024-11-13 23h12.14.890244 +0530,
0.1,1000,exp,6,4,76,3,333.6300956001505,,333.61690360028297,333.6300956001505,334.6301397001371,334.6301397001371,334.6301397001371,335.0485610002652,space,0.40633359970524907,None,335.04947030032054,335.16323056683564,335.478920600377,335.46237000031397,335.4624061002396,335.478920600377,335.478920600377,335.478920600377,336.91570560028777,500,1,[1.450617500115186],[1.450630699750036],1,001,2024-11-13_23h12.02.220,intentional_binding,2024.1.5,None,2024-11-13 23h12.14.890244 +0530,
0.1,1000,exp,6,5,77,6,336.9301439002156,,336.9170088004321,336.9301439002156,337.93008220009506,337.93008220009506,337.93008220009506,338.432426400017,space,0.48961729975417256,None,338.4334922004491,338.5469619669641,338.87285800045356,338.85696640005335,338.85702130012214,338.87285800045356,338.87285800045356,338.87285800045356,340.0820256001316,400,1,[1.2226710002869368],[1.2226836001500487],1,001,2024-11-13_23h12.02.220,intentional_binding,2024.1.5,None,2024-11-13 23h12.14.890244 +0530,
0.1,400,unexp,6,6,78,0,340.0964434002526,,340.0836440999992,340.0964434002526,341.09659590013325,341.09659590013325,341.09659590013325,341.86592290038243,space,0.7564032999798656,None,341.86689170030877,341.9800236668127,342.2933613001369,342.2782973004505,342.27834470011294,342.2933613001369,342.2933613001369,342.2933613001369,343.3484159000218,500,1,[1.0674637001939118],[1.0674800002016127],1,001,2024-11-13_23h12.02.220,intentional_binding,2024.1.5,None,2024-11-13 23h12.14.890244 +0530,
0.4,1000,exp,6,7,79,7,343.3629915001802,,343.3514898000285,343.3629915001802,344.36358290025964,344.36358290025964,344.36358290025964,344.78262870013714,space,0.4167455001734197,None,344.783766400069,345.1962867668519,,345.44449720019475,345.4445717004128,345.459177700337,345.459177700337,345.459177700337,346.46560140000656,400,1,[1.0185631001368165],[1.018577900249511],1,001,2024-11-13_23h12.02.220,intentional_binding,2024.1.5,None,2024-11-13 23h12.14.890244 +0530,
0.7,400,unexp,6,8,80,2,346.4800448003225,,346.46680840011686,346.4800448003225,347.4798953002319,347.4798953002319,347.4798953002319,347.8490400002338,space,0.36703590024262667,None,347.8499406003393,348.5626171669612,348.8697282001376,348.85414760001004,348.8542006001808,348.8697282001376,348.8697282001376,348.8697282001376,350.86551740020514,700,1,[2.008145600091666],[2.0081600002013147],1,001,2024-11-13_23h12.02.220,intentional_binding,2024.1.5,None,2024-11-13 23h12.14.890244 +0530,
0.7,1000,exp,6,9,81,11,350.8797732000239,,350.8670996003784,350.8797732000239,351.8799764001742,351.8799764001742,351.8799764001742,352.33221620041877,space,0.44672210002318025,None,352.3332344000228,353.04656176694357,353.3584933001548,353.34410850005224,353.3441575001925,353.3584933001548,353.3584933001548,353.3584933001548,354.56446580030024,700,1,[1.2179515999741852],[1.2179648000746965],1,001,2024-11-13_23h12.02.220,intentional_binding,2024.1.5,None,2024-11-13 23h12.14.890244 +0530,
0.4,400,unexp,6,10,82,1,354.57966600032523,,354.56602850044146,354.57966600032523,355.57938210014254,355.57938210014254,355.57938210014254,355.78239360032603,space,0.19376809988170862,None,355.78350060014054,356.1962943669098,356.5072460002266,356.4940166003071,356.4940473004244,356.5072460002266,356.5072460002266,356.5072460002266,357.3662710003555,600,1,[0.8697738000191748],[0.8697898001410067],1,001,2024-11-13_23h12.02.220,intentional_binding,2024.1.5,None,2024-11-13 23h12.14.890244 +0530,
0.4,1000,exp,6,11,83,10,357.3799394001253,,357.36757120024413,357.3799394001253,358.37994350027293,358.37994350027293,358.37994350027293,358.5148021001369,space,0.11895189993083477,None,358.5155953001231,358.92969976697736,359.23941260017455,359.2238886002451,359.2239474002272,359.23941260017455,359.23941260017455,359.23941260017455,359.9822108000517,300,1,[0.754400999750942],[0.7544158999808133],1,001,2024-11-13_23h12.02.220,intentional_binding,2024.1.5,None,2024-11-13 23h12.14.890244 +0530,
0.4,1000,exp,7,0,84,7,359.996332900133,,359.9842798002064,359.996332900133,360.99652190040797,360.99652190040797,360.99652190040797,361.4813788002357,space,0.4702011002227664,None,361.4822743004188,361.8962176670941,362.20787280006334,362.194064500276,362.194103800226,362.20787280006334,362.20787280006334,362.20787280006334,363.164312500041,700,1,[0.9679545001126826],[0.9679657998494804],1,001,2024-11-13_23h12.02.220,intentional_binding,2024.1.5,None,2024-11-13 23h12.14.890244 +0530,
0.4,1000,exp,7,1,85,4,363.1796146002598,,363.16654930030927,363.1796146002598,364.1797104002908,364.1797104002908,364.1797104002908,364.3814970003441,space,0.19660710031166673,None,364.3823780003004,364.7962359670239,365.1095402003266,365.0943541000597,365.0944028003141,365.1095402003266,365.1095402003266,365.1095402003266,366.2316318000667,500,1,[1.1344511997886002],[1.1344665996730328],1,001,2024-11-13_23h12.02.220,intentional_binding,2024.1.5,None,2024-11-13 23h12.14.890244 +0530,
0.7,1000,exp,7,2,86,5,366.2463172003627,,366.2332113003358,366.2463172003627,367.24601290002465,367.24601290002465,367.24601290002465,367.5480945003219,space,0.2922732001170516,None,367.5491355000995,368.26253526710593,368.57318440033123,368.554278800264,368.5543301003054,368.57318440033123,368.57318440033123,368.57318440033123,369.94776470027864,800,1,[1.3904626001603901],[1.3904759003780782],1,001,2024-11-13_23h12.02.220,intentional_binding,2024.1.5,None,2024-11-13 23h12.14.890244 +0530,
0.1,1000,exp,7,3,87,6,369.96299950033426,,369.94900060025975,369.96299950033426,370.9628985002637,370.9628985002637,370.9628985002637,371.3472910001874,space,0.37107850005850196,None,371.3482520002872,371.4625450666683,371.76860270043835,371.7539997003041,371.75404260028154,371.76860270043835,371.76860270043835,371.76860270043835,372.91421710001305,400,1,[1.1578295999206603],[1.1578412996605039],1,001,2024-11-13_23h12.02.220,intentional_binding,2024.1.5,None,2024-11-13 23h12.14.890244 +0530,
0.4,1000,exp,7,4,88,10,372.9296791004017,,372.91564690042287,372.9296791004017,373.92937110038474,373.92937110038474,373.92937110038474,374.7148731001653,space,0.7731512999162078,None,374.7157939001918,375.1292953668783,375.4426823002286,375.4274188000709,375.42746340017766,375.4426823002286,375.4426823002286,375.4426823002286,385.9348378004506,400 ,1,[10.504222400020808],[10.504245899617672],1,001,2024-11-13_23h12.02.220,intentional_binding,2024.1.5,None,2024-11-13 23h12.14.890244 +0530,
0.4,400,unexp,7,5,89,1,385.9457299001515,,385.93647790001705,385.9457299001515,386.94605940021574,386.94605940021574,386.94605940021574,387.3473189002834,space,0.3951055002398789,None,387.34826410003006,387.7622677670481,388.06962620001286,388.0540958000347,388.05414050025865,388.06962620001286,388.06962620001286,388.06962620001286,389.03123310022056,600,1,[0.9745272002182901],[0.9745424003340304],1,001,2024-11-13_23h12.02.220,intentional_binding,2024.1.5,None,2024-11-13 23h12.14.890244 +0530,
0.7,400,unexp,7,6,90,2,389.0459175002761,,389.0330998999998,389.0459175002761,390.0456694001332,390.0456694001332,390.0456694001332,390.2807041001506,space,0.22565869987010956,None,390.2816408001818,390.99572176678726,391.3090582001023,391.2939795004204,391.29402590030804,391.3090582001023,391.3090582001023,391.3090582001023,392.61450150003657,500,1,[1.3178817997686565],[1.3178926999680698],1,001,2024-11-13_23h12.02.220,intentional_binding,2024.1.5,None,2024-11-13 23h12.14.890244 +0530,
0.1,400,unexp,7,7,91,0,392.62898830045015,,392.61560760019347,392.62898830045015,393.6290590004064,393.6290590004064,393.6290590004064,393.9650049000047,space,0.321223400067538,None,393.9660787000321,394.0786508666972,394.3857476003468,394.3737558000721,394.37379480013624,394.3857476003468,394.3857476003468,394.3857476003468,395.7813418000005,300,1,[1.4044751999899745],[1.4044878999702632],1,001,2024-11-13_23h12.02.220,intentional_binding,2024.1.5,None,2024-11-13 23h12.14.890244 +0530,
0.1,1000,exp,7,8,92,9,395.79594090022147,,395.7826060000807,395.79594090022147,396.7958687003702,396.7958687003702,396.7958687003702,397.79848630027846,space,1.0004371996037662,None,397.79948370018974,397.9124693670931,398.2188610001467,398.20380150014535,398.2038498003967,398.2188610001467,398.2188610001467,398.2188610001467,398.9324315004051,700,1,[0.725919600110501],[0.725934199988842],1,001,2024-11-13_23h12.02.220,intentional_binding,2024.1.5,None,2024-11-13 23h12.14.890244 +0530,
0.7,1000,exp,7,9,93,8,398.9459413001314,,398.933524900116,398.9459413001314,399.9455793001689,399.9455793001689,399.9455793001689,400.68032020004466,space,0.7248174999840558,None,400.6810449003242,401.39553756692135,401.7075524004176,401.6937888003886,401.69383300002664,401.7075524004176,401.7075524004176,401.7075524004176,403.8649526000954,700,1,[2.168134900275618],[2.16816270025447],1,001,2024-11-13_23h12.02.220,intentional_binding,2024.1.5,None,2024-11-13 23h12.14.890244 +0530,
0.1,1000,exp,7,10,94,3,403.87908390024677,,403.8664228003472,403.87908390024677,404.8788510002196,404.8788510002196,404.8788510002196,405.5642185001634,space,0.6705725998617709,None,405.5653416002169,405.6791107669162,405.988125000149,405.97389580029994,405.97394390031695,405.988125000149,405.988125000149,405.988125000149,406.9810739001259,200,1,[1.0045949001796544],[1.0046081999316812],1,001,2024-11-13_23h12.02.220,intentional_binding,2024.1.5,None,2024-11-13 23h12.14.890244 +0530,
0.7,1000,exp,7,11,95,11,406.9952222001739,,406.9824685002677,406.9952222001739,407.99552580015734,407.99552580015734,407.99552580015734,408.74726080009714,space,0.7449147999286652,None,408.7481152000837,409.46192276670286,409.76939750043675,409.7539682001807,409.75401290040463,409.76939750043675,409.76939750043675,409.76939750043675,410.9307468002662,800,1,[1.1740612997673452],[1.1740724998526275],1,001,2024-11-13_23h12.02.220,intentional_binding,2024.1.5,None,2024-11-13 23h12.14.890244 +0530,
0.4,400,unexp,8,0,96,1,410.9454805003479,,410.93228050041944,410.9454805003479,411.9450518004596,411.9450518004596,411.9450518004596,412.04609770001844,space,0.08456170000135899,None,412.046863200143,412.46183456672975,412.7681448003277,412.7536929002963,412.75373800005764,412.7681448003277,412.7681448003277,412.7681448003277,414.1465328000486,500,1,[1.3904019999317825],[1.3904124996624887],1,001,2024-11-13_23h12.02.220,intentional_binding,2024.1.5,None,2024-11-13 23h12.14.890244 +0530,
0.1,1000,exp,8,1,97,9,414.161927100271,,414.1477103000507,414.161927100271,415.1622978001833,415.1622978001833,415.1622978001833,415.7632350004278,space,0.5906304996460676,None,415.76403850037605,415.8785652667905,416.1879529003054,416.1737099001184,416.1737669003196,416.1879529003054,416.1879529003054,416.1879529003054,417.4972498002462,600,1,[1.320667500142008],[1.320678699761629],1,001,2024-11-13_23h12.02.220,intentional_binding,2024.1.5,None,2024-11-13 23h12.14.890244 +0530,
0.7,1000,exp,8,2,98,8,417.5121910003945,,417.4986896002665,417.5121910003945,418.51226580003276,418.51226580003276,418.51226580003276,418.64666500035673,space,0.12878220016136765,None,418.6475329003297,419.36186406674483,419.66999630024657,419.6538486001082,419.6539033004083,419.66999630024657,419.66999630024657,419.66999630024657,420.8476260001771,400,1,[1.1909682000987232],[1.1909815003164113],1,001,2024-11-13_23h12.02.220,intentional_binding,2024.1.5,None,2024-11-13 23h12.14.890244 +0530,
0.4,1000,exp,8,3,99,7,420.8620545002632,,420.84914490021765,420.8620545002632,421.86203690012917,421.86203690012917,421.86203690012917,422.44631430041045,space,0.5817053001374006,None,422.4472295003943,422.8615958667981,423.17565520014614,423.1603858000599,423.160434700083,423.17565520014614,423.17565520014614,423.17565520014614,424.3631057003513,600,1,[1.2002920997329056],[1.2003027996979654],1,001,2024-11-13_23h12.02.220,intentional_binding,2024.1.5,None,2024-11-13 23h12.14.890244 +0530,
0.1,1000,exp,8,4,100,6,424.37839090032503,,424.36438130028546,424.37839090032503,425.3786811004393,425.3786811004393,425.3786811004393,425.84790140017867,space,0.4610315999016166,None,425.8491655001417,425.96165056672567,426.26788150006905,426.25376070011407,426.25381050026044,426.26788150006905,426.26788150006905,426.26788150006905,427.0803897003643,100,1,[0.8242226000875235],[0.8242350998334587],1,001,2024-11-13_23h12.02.220,intentional_binding,2024.1.5,None,2024-11-13 23h12.14.890244 +0530,
0.1,1000,exp,8,5,101,3,427.09495740011334,,427.0819953000173,427.09495740011334,428.0950608002022,428.0950608002022,428.0950608002022,428.4132714001462,space,0.30525430012494326,None,428.41412870027125,428.52858496696376,428.84401650028303,428.8290518000722,428.8291044002399,428.84401650028303,428.84401650028303,428.84401650028303,429.7633778001182,200,1,[0.9316880996339023],[0.931704199872911],1,001,2024-11-13_23h12.02.220,intentional_binding,2024.1.5,None,2024-11-13 23h12.14.890244 +0530,
0.7,1000,exp,8,6,102,11,429.77845720015466,,429.76471330039203,429.77845720015466,430.7786439000629,430.7786439000629,430.7786439000629,431.3805428002961,space,0.5972903999499977,None,431.3819018001668,432.0950038671183,432.4103858000599,432.3944367002696,432.3944951002486,432.4103858000599,432.4103858000599,432.4103858000599,433.39689340023324,300,1,[0.9995976998470724],[0.9996130000799894],1,001,2024-11-13_23h12.02.220,intentional_binding,2024.1.5,None,2024-11-13 23h12.14.890244 +0530,
0.4,1000,exp,8,7,103,10,433.41162730008364,,433.39818410016596,433.41162730008364,434.4116991003975,434.4116991003975,434.4116991003975,434.44722880003974,space,0.027041399851441383,None,434.4482276001945,434.86162866704785,435.1714893002063,435.1541166002862,435.1541948001832,435.1714893002063,435.1714893002063,435.1714893002063,436.66386690037325,100,1,[1.5065291998907924],[1.5065414998680353],1,001,2024-11-13_23h12.02.220,intentional_binding,2024.1.5,None,2024-11-13 23h12.14.890244 +0530,
0.4,1000,exp,8,8,104,4,436.67857940029353,,436.66553020011634,436.67857940029353,437.6782302004285,437.6782302004285,437.6782302004285,437.9135249000974,space,0.23057720018550754,None,437.91448470018804,438.3283135668064,438.6393131003715,438.6250562001951,438.6251087002456,438.6393131003715,438.6393131003715,438.6393131003715,439.63098140014336,600,1,[1.0032154000364244],[1.0032875998876989],1,001,2024-11-13_23h12.02.220,intentional_binding,2024.1.5,None,2024-11-13 23h12.14.890244 +0530,
0.1,400,unexp,8,9,105,0,439.64516150020063,,439.63271190039814,439.64516150020063,440.644567000214,440.644567000214,440.644567000214,441.0972815002315,space,0.44289290020242333,None,441.09835840016603,441.2113410668137,441.5194381000474,441.50418800022453,441.50423600012437,441.5194381000474,441.5194381000474,441.5194381000474,442.763258300256,400,1,[1.2564877001568675],[1.2564993002451956],1,001,2024-11-13_23h12.02.220,intentional_binding,2024.1.5,None,2024-11-13 23h12.14.890244 +0530,
0.7,400,unexp,8,10,106,2,442.7782693002373,,442.7647461001761,442.7782693002373,443.77837040042505,443.77837040042505,443.77837040042505,444.18030470004305,space,0.3970623998902738,None,444.1813816004433,444.89485236682617,445.2088132002391,445.19382470007986,445.1938703004271,445.2088132002391,445.2088132002391,445.2088132002391,446.86400670045987,600,1,[1.6670228000730276],[1.6670355000533164],1,001,2024-11-13_23h12.02.220,intentional_binding,2024.1.5,None,2024-11-13 23h12.14.890244 +0530,
0.7,1000,exp,8,11,107,5,446.87847090000287,,446.86544160032645,446.87847090000287,447.87843380030245,447.87843380030245,447.87843380030245,448.2132452004589,space,0.319983399938792,None,448.21424290025607,448.9280155669587,449.2388762002811,449.22393150022253,449.2239770004526,449.2388762002811,449.2388762002811,449.2388762002811,450.1306442003697,300,1,[0.9035541997291148],[0.9035672997124493],1,001,2024-11-13_23h12.02.220,intentional_binding,2024.1.5,None,2024-11-13 23h12.14.890244 +0530,
0.1,1000,exp,9,0,108,3,450.1448860000819,,450.1318985000253,450.1448860000819,451.1447264002636,451.1447264002636,451.1447264002636,451.56398740038276,space,0.40648109978064895,None,451.56517760036513,451.67767436668896,451.9897090001032,451.97373020043597,451.9737879000604,451.9897090001032,451.9897090001032,451.9897090001032,453.42933980003,400,1,[1.452854999806732],[1.4528660997748375],1,001,2024-11-13_23h12.02.220,intentional_binding,2024.1.5,None,2024-11-13 23h12.14.890244 +0530,
0.4,400,unexp,9,1,109,1,453.4446540004574,,453.43057460011914,453.4446540004574,454.4446163000539,454.4446163000539,454.4446163000539,454.46364480024204,space,0.0064663998782634735,None,454.46467390004545,454.8779495671081,455.1902563003823,455.17402610043064,455.1745131001808,455.1902563003823,455.1902563003823,455.1902563003823,456.09707400016487,500,1,[0.919048999901861],[0.9190616998821497],1,001,2024-11-13_23h12.02.220,intentional_binding,2024.1.5,None,2024-11-13 23h12.14.890244 +0530,
0.7,400,unexp,9,2,110,2,456.1114804004319,,456.098567600362,456.1114804004319,457.1113370000385,457.1113370000385,457.1113370000385,457.9134341003373,space,0.7922184001654387,None,457.9148277002387,458.62762016669535,458.93833380006254,458.92365320026875,458.923694900237,458.93833380006254,458.93833380006254,458.93833380006254,460.54769890010357,600,1,[1.6204944998025894],[1.620511299930513],1,001,2024-11-13_23h12.02.220,intentional_binding,2024.1.5,None,2024-11-13 23h12.14.890244 +0530,
0.7,1000,exp,9,3,111,8,460.5616472000256,,460.5489444001578,460.5616472000256,461.5613404000178,461.5613404000178,461.5613404000178,463.0477311001159,space,1.4840608998201787,None,463.04876390006393,463.76089066692316,464.06858320022,464.0535633000545,464.05360900005326,464.06858320022,464.06858320022,464.06858320022,465.79604340018705,800,1,[1.7398871001787484],[1.7399086002260447],1,001,2024-11-13_23h12.02.220,intentional_binding,2024.1.5,None,2024-11-13 23h12.14.890244 +0530,
0.4,1000,exp,9,4,112,4,465.81116650020704,,465.79739710036665,465.81116650020704,466.81085960008204,466.81085960008204,466.81085960008204,466.879113800358,space,0.06218159990385175,None,466.8800445003435,467.2945971671181,467.6080202003941,467.59367410000414,467.5937255001627,467.6080202003941,467.6080202003941,467.6080202003941,469.76426820037887,200,1,[2.1675839996896684],[2.1675996999256313],1,001,2024-11-13_23h12.02.220,intentional_binding,2024.1.5,None,2024-11-13 23h12.14.890244 +0530,
0.4,1000,exp,9,5,113,10,469.77781740017235,,469.7656700001098,469.77781740017235,470.77796720014885,470.77796720014885,470.77796720014885,471.4633114002645,space,0.683353700209409,None,471.4641271000728,471.8777952669809,472.1982254004106,472.1828066003509,472.1828461000696,472.1982254004106,472.1982254004106,472.1982254004106,473.36370670003816,400,1,[1.1787618999369442],[1.1787769002839923],1,001,2024-11-13_23h12.02.220,intentional_binding,2024.1.5,None,2024-11-13 23h12.14.890244 +0530,
0.7,1000,exp,9,6,114,11,473.3779351999983,,473.3652543001808,473.3779351999983,474.3778996001929,474.3778996001929,474.3778996001929,474.8625839003362,space,0.46845880011096597,None,474.86327760014683,475.5776559669214,475.8886896003969,475.8740456001833,475.8741106004454,475.8886896003969,475.8886896003969,475.8886896003969,477.3121749004349,800,1,[1.435399199835956],[1.435409199912101],1,001,2024-11-13_23h12.02.220,intentional_binding,2024.1.5,None,2024-11-13 23h12.14.890244 +0530,
0.1,1000,exp,9,7,115,6,477.32742090011016,,477.31328770006076,477.32742090011016,478.3277504001744,478.3277504001744,478.3277504001744,479.4296103003435,space,1.0863994001410902,None,479.4305898002349,479.5442422670933,479.8513689003885,479.837284500245,479.8373402003199,479.8513689003885,479.8513689003885,479.8513689003885,481.7289942000061,100,1,[1.8892860999330878],[1.8892963998951018],1,001,2024-11-13_23h12.02.220,intentional_binding,2024.1.5,None,2024-11-13 23h12.14.890244 +0530,
0.1,400,unexp,9,8,116,0,481.74404410040006,,481.73052650038153,481.74404410040006,482.7417624001391,482.7417624001391,482.7607470001094,483.0629485002719,space,0.31176389986649156,None,483.0640044002794,483.1775909667524,483.51204719999805,483.496775300242,483.4968141000718,483.51204719999805,483.51204719999805,483.51204719999805,484.97951590036973,300,1,[1.4801473999395967],[1.480161199811846],1,001,2024-11-13_23h12.02.220,intentional_binding,2024.1.5,None,2024-11-13 23h12.14.890244 +0530,
0.4,1000,exp,9,9,117,7,484.9941558004357,,484.9808303001337,484.9941558004357,485.9941655001603,485.9941655001603,485.9941655001603,486.1960507002659,space,0.1927378000691533,None,486.1970451003872,486.6106563667456,486.9201880004257,486.90350330015644,486.90357140032575,486.9201880004257,486.9201880004257,486.9201880004257,488.56188160041347,500,1,[1.655887100379914],[1.6559022003784776],1,001,2024-11-13_23h12.02.220,intentional_binding,2024.1.5,None,2024-11-13 23h12.14.890244 +0530,
0.7,1000,exp,9,10,118,5,488.57717260019854,,488.5633066003211,488.57717260019854,489.57748380023986,489.57748380023986,489.57748380023986,490.846196600236,space,1.2601320003159344,None,490.8471818002872,491.5605761670197,491.87043220037594,491.85378250014037,491.85383450007066,491.87043220037594,491.87043220037594,491.87043220037594,494.4452536003664,300,1,[2.588947399985045],[2.588963400106877],1,001,2024-11-13_23h12.02.220,intentional_binding,2024.1.5,None,2024-11-13 23h12.14.890244 +0530,
0.1,1000,exp,9,11,119,9,494.4605161002837,,494.44720030017197,494.4605161002837,495.46047640033066,495.46047640033066,495.46047640033066,495.7120928000659,space,0.23637970024719834,None,495.7129704002291,495.8271569670799,496.138334300369,496.1241326001473,496.12418929999694,496.138334300369,496.138334300369,496.138334300369,497.7631165003404,100,1,[1.6361785000190139],[1.6361929001286626],1,001,2024-11-13_23h12.02.220,intentional_binding,2024.1.5,None,2024-11-13 23h12.14.890244 +0530,
0.4,1000,exp,10,0,120,7,497.7774063004181,,497.7645438001491,497.7774063004181,498.77543000038713,498.77543000038713,498.79182980023324,499.14550890028477,space,0.36501939967274666,None,499.14661840023473,499.5606494667629,499.8682913002558,499.85366820031777,499.85372100025415,499.8682913002558,499.8682913002558,499.8682913002558,501.2457817001268,300,1,[1.3893610001541674],[1.3893736000172794],1,001,2024-11-13_23h12.02.220,intentional_binding,2024.1.5,None,2024-11-13 23h12.14.890244 +0530,
0.1,1000,exp,10,1,121,9,501.26065310044214,,501.2471592002548,501.26065310044214,502.26069460017607,502.26069460017607,502.26069460017607,502.6113328002393,space,0.33591540018096566,None,502.61200370034203,502.72654986667135,503.0449264002964,503.0280980002135,503.0281528001651,503.0449264002964,503.0449264002964,503.0449264002964,505.1784988003783,400,1,[2.147415000014007],[2.1474264999851584],1,001,2024-11-13_23h12.02.220,intentional_binding,2024.1.5,None,2024-11-13 23h12.14.890244 +0530,
0.4,400,unexp,10,2,122,1,505.1935742003843,,505.17992720007896,505.1935742003843,506.19366390025243,506.19366390025243,506.19366390025243,508.62869460042566,space,2.4200487001799047,None,508.62943850038573,509.04366386688,509.35885990038514,509.34353290032595,509.3435779004358,509.35885990038514,509.35885990038514,509.35885990038514,511.1950233001262,600,1,[1.8490590997971594],[1.8490728996694088],1,001,2024-11-13_23h12.02.220,intentional_binding,2024.1.5,None,2024-11-13 23h12.14.890244 +0530,
0.4,1000,exp,10,3,123,10,511.2104126000777,,511.1962925000116,511.2104126000777,512.2104206001386,512.2104206001386,512.2104206001386,512.6788069000468,space,0.45447460003197193,None,512.6798134003766,513.0937824668983,513.4080509003252,513.3934551002458,513.3934989003465,513.4080509003252,513.4080509003252,513.4080509003252,515.7790732001886,100,1,[2.3829290000721812],[2.38293999992311],1,001,2024-11-13_23h12.02.220,intentional_binding,2024.1.5,None,2024-11-13 23h12.14.890244 +0530,
0.7,1000,exp,10,4,124,5,515.7937695002183,,515.7804167000577,515.7937695002183,516.7939556003548,516.7939556003548,516.7939556003548,517.0451145004481,space,0.24280739994719625,None,517.0460391002707,517.7598446668746,,518.0045922002755,518.0046493001282,518.0217773001641,518.0217773001641,518.0217773001641,520.5120038003661,500,1,[2.5050238999538124],[2.5050361999310553],1,001,2024-11-13_23h12.02.220,intentional_binding,2024.1.5,None,2024-11-13 23h12.14.890244 +0530,
0.4,1000,exp,10,5,125,4,520.5268191001378,,520.5133873000741,520.5268191001378,521.5267772004008,521.5267772004008,521.5267772004008,521.9794080001302,space,0.4398516998626292,None,521.9803524003364,522.3932306669342,522.7087535001338,522.694371800404,522.694424000103,522.7087535001338,522.7087535001338,522.7087535001338,525.8114405004308,500,1,[3.1146971001289785],[3.11470519984141],1,001,2024-11-13_23h12.02.220,intentional_binding,2024.1.5,None,2024-11-13 23h12.14.890244 +0530,
0.7,1000,exp,10,6,126,11,525.8266622000374,,525.8130515003577,525.8266622000374,526.8268017000519,526.8268017000519,526.8268017000519,527.2454427001067,space,0.4108606004156172,None,527.2464450001717,527.9601633670429,528.2679605004378,528.2535670003854,528.2536022001877,528.2679605004378,528.2679605004378,528.2679605004378,531.2617051000707,600,1,[3.005711799953133],[3.0057228999212384],1,001,2024-11-13_23h12.02.220,intentional_binding,2024.1.5,None,2024-11-13 23h12.14.890244 +0530,
0.7,400,unexp,10,7,127,2,531.2766924002208,,531.2634264002554,531.2766924002208,532.276608900167,532.276608900167,532.276608900167,532.312447400298,space,0.023742999881505966,None,532.3134893001989,533.02642126667,533.3392426003702,533.3242574003525,533.3243090002798,533.3392426003702,533.3392426003702,533.3392426003702,535.2460162001662,400,1,[1.9184947996400297],[1.9185089999809861],1,001,2024-11-13_23h12.02.220,intentional_binding,2024.1.5,None,2024-11-13 23h12.14.890244 +0530,
0.7,1000,exp,10,8,128,8,535.259799499996,,535.247316500172,535.259799499996,536.2595286001451,536.2595286001451,536.2595286001451,536.3467553001828,space,None,None,536.348228300456,537.0598242669987,537.3695981004275,537.354422500357,537.3544762004167,537.3695981004275,537.3695981004275,537.3695981004275,539.3448712001555,500,1,[1.987928000278771],[1.9879395002499223],1,001,2024-11-13_23h12.02.220,intentional_binding,2024.1.5,None,2024-11-13 23h12.14.890244 +0530,
0.1,1000,exp,10,9,129,3,539.3594806003384,,539.3462554002181,539.3594806003384,540.3598486003466,540.3598486003466,540.3598486003466,540.6943908003159,space,0.32213550014421344,None,540.6949616000056,540.8094888670059,,541.0537450001575,541.053817700129,541.0690365000628,541.0690365000628,541.0690365000628,543.8946258001961,600,1,[2.8384184003807604],[2.83842910034582],1,001,2024-11-13_23h12.02.220,intentional_binding,2024.1.5,None,2024-11-13 23h12.14.890244 +0530,
0.1,400,unexp,10,10,130,0,543.9096542000771,,543.8959319000132,543.9096542000771,544.909799200017,544.909799200017,544.909799200017,545.3614229001105,space,0.43834999995306134,None,545.3623099001125,545.4762094668733,545.8111537001096,545.7963924002834,545.7964370003901,545.8111537001096,545.8111537001096,545.8111537001096,547.9112546001561,300,1,[2.1124867000617087],[2.112499199807644],1,001,2024-11-13_23h12.02.220,intentional_binding,2024.1.5,None,2024-11-13 23h12.14.890244 +0530,
0.1,1000,exp,10,11,131,6,547.9263935000636,,547.9125898000784,547.9263935000636,548.9262072001584,548.9262072001584,548.9262072001584,549.3444022000767,space,0.40213790023699403,None,549.3451889003627,549.4596767668302,549.7716190000065,549.7544357003644,549.7544880001806,549.7716190000065,549.7716190000065,549.7716190000065,551.0279118004255,600,1,[1.2705537998117507],[1.270567299798131],1,001,2024-11-13_23h12.02.220,intentional_binding,2024.1.5,None,2024-11-13 23h12.14.890244 +0530,
0.1,1000,exp,11,0,132,6,551.0427874000743,,551.0291948001832,551.0427874000743,552.0432685003616,552.0432685003616,552.0432685003616,552.1785715003498,space,0.12447910010814667,None,552.1794482003897,552.2927329671259,552.5992449000478,552.5835571000353,552.5836067004129,552.5992449000478,552.5992449000478,552.5992449000478,554.1448328001425,100,1,[1.5585594000294805],[1.5585704003460705],1,001,2024-11-13_23h12.02.220,intentional_binding,2024.1.5,None,2024-11-13 23h12.14.890244 +0530,
0.4,400,unexp,11,1,133,1,554.159845800139,,554.1468332000077,554.159845800139,555.1598621001467,555.1598621001467,555.1598621001467,555.4796515000053,space,0.31744319992139935,None,555.480550000444,555.8924611667792,556.2034940002486,556.1883258000016,556.1883698003367,556.2034940002486,556.2034940002486,556.2034940002486,557.396565400064,300,1,[1.2051785001531243],[1.2051959000527859],1,001,2024-11-13_23h12.02.220,intentional_binding,2024.1.5,None,2024-11-13 23h12.14.890244 +0530,
0.1,1000,exp,11,2,134,9,557.4098176001571,,557.3978868001141,557.4098176001571,558.409498100169,558.409498100169,558.409498100169,558.9282075003721,space,0.5140968998894095,None,558.9290877003223,559.0409190669345,559.3489451003261,559.3336801002733,559.3337278002873,559.3489451003261,559.3489451003261,559.3489451003261,561.1619045003317,100,1,[1.8254677997902036],[1.8254824997857213],1,001,2024-11-13_23h12.02.220,intentional_binding,2024.1.5,None,2024-11-13 23h12.14.890244 +0530,
0.7,1000,exp,11,3,135,8,561.1760807000101,,561.1634643003345,561.1760807000101,562.1763668004423,562.1763668004423,562.1763668004423,562.4115186003037,space,0.22284350031986833,None,562.4125334001146,563.1258437666731,563.4263305002823,563.4104251000099,563.4104623002931,563.4263305002823,563.4263305002823,563.4263305002823,564.978054900188,700,1,[1.5651300000026822],[1.565142699982971],1,001,2024-11-13_23h12.02.220,intentional_binding,2024.1.5,None,2024-11-13 23h12.14.890244 +0530,
0.7,400,unexp,11,4,136,2,564.9927685000002,,564.9794741002843,564.9927685000002,565.9927372001112,565.9927372001112,565.9927372001112,566.3451900002547,space,0.34736720006912947,None,566.3460286003537,567.0571559668208,567.4239632003009,567.4008780000731,567.400961600244,567.4239632003009,567.4239632003009,567.4239632003009,569.3605729001574,400 ,1,[1.9566116998903453],[1.9566289000213146],1,001,2024-11-13_23h12.02.220,intentional_binding,2024.1.5,None,2024-11-13 23h12.14.890244 +0530,
0.1,1000,exp,11,5,137,3,569.3760188003071,,569.3625824004412,569.3760188003071,570.3764618001878,570.3764618001878,570.3764618001878,571.1253027003258,space,0.732128799892962,None,571.1261377003975,571.226158166832,571.538612600416,571.523580300156,571.5236238003708,571.538612600416,571.538612600416,571.538612600416,572.9452679003589,100,1,[1.4191431999206543],[1.4191556996665895],1,001,2024-11-13_23h12.02.220,intentional_binding,2024.1.5,None,2024-11-13 23h12.14.890244 +0530,
0.4,1000,exp,11,6,138,10,572.9593123001978,,572.9465613001958,572.9593123001978,573.9597610002384,573.9597610002384,573.9597610002384,580.6281153000891,space,6.652212200220674,None,580.6291614002548,581.0424971669602,581.3470688001253,581.3332737004384,581.3333088001236,581.3470688001253,581.3470688001253,581.3470688001253,585.6280060000718,200,1,[4.292295600287616],[4.292311100289226],1,001,2024-11-13_23h12.02.220,intentional_binding,2024.1.5,None,2024-11-13 23h12.14.890244 +0530,
0.7,1000,exp,11,7,139,11,585.6421759002842,,585.6299037002027,585.6421759002842,586.6423306004144,586.6423306004144,586.6423306004144,588.2942439001054,space,1.6465332000516355,None,588.2952344003133,589.0087578669811,589.3187365001068,589.3036078000441,589.3036558004096,589.3187365001068,589.3187365001068,589.3187365001068,590.8611819003709,400,1,[1.5549830999225378],[1.5549956997856498],1,001,2024-11-13_23h12.02.220,intentional_binding,2024.1.5,None,2024-11-13 23h12.14.890244 +0530,
0.4,1000,exp,11,8,140,4,590.8758137002587,,590.8628803002648,590.8758137002587,591.8753003003076,591.8753003003076,591.8753003003076,592.2438846002333,space,0.35443999990820885,None,592.2448218003847,592.658775867025,592.9675569003448,592.9531845003366,592.953283500392,592.9675569003448,592.9675569003448,592.9675569003448,593.6946543003432,500,1,[0.7386711002327502],[0.7386890002526343],1,001,2024-11-13_23h12.02.220,intentional_binding,2024.1.5,None,2024-11-13 23h12.14.890244 +0530,
0.7,1000,exp,11,9,141,5,593.7092435001396,,593.6960096000694,593.7092435001396,594.7090595001355,594.7090595001355,594.7090595001355,595.0108782001771,space,0.2938652001321316,None,595.0116756004281,595.7256335667955,596.0409433003515,596.0239283000119,596.0239851004444,596.0409433003515,596.0409433003515,596.0409433003515,598.9116046000272,800,1,[2.8837234997190535],[2.8837374998256564],1,001,2024-11-13_23h12.02.220,intentional_binding,2024.1.5,None,2024-11-13 23h12.14.890244 +0530,
0.1,400,unexp,11,10,142,0,598.9258119002916,,598.9135239003226,598.9258119002916,599.9256535000168,599.9256535000168,599.9256535000168,600.0944847003557,space,0.1539373998530209,None,600.0954341003671,600.2086143671224,600.5189221003093,600.5036884001456,600.5037357001565,600.5189221003093,600.5189221003093,600.5189221003093,601.4941136003472,600,1,[0.9873661999590695],[0.9873786000534892],1,001,2024-11-13_23h12.02.220,intentional_binding,2024.1.5,None,2024-11-13 23h12.14.890244 +0530,
0.4,1000,exp,11,11,143,7,601.5091793001629,,601.496078400407,601.5091793001629,602.509025500156,602.509025500156,602.509025500156,604.1107584000565,space,1.5843934998847544,None,604.1117174001411,604.5254269666659,604.8608606001362,604.8415624001063,604.8416053000838,604.8608606001362,604.8608606001362,604.8608606001362,605.8781501003541,300,1,[1.0333734001033008],[1.0333967003971338],1,001,2024-11-13_23h12.02.220,intentional_binding,2024.1.5,None,2024-11-13 23h12.14.890244 +0530,
0.4,400,unexp,12,0,144,1,605.8922108002007,,605.8800782002509,605.8922108002007,606.8919223002158,606.8919223002158,606.8919223002158,607.8265943001024,space,0.9201336000114679,None,607.8273792001419,608.2420462668563,608.5497275004163,608.5336640002206,608.5337167000398,608.5497275004163,608.5497275004163,608.5497275004163,610.5104477000423,200,1,[1.9741702997125685],[1.9741849000565708],1,001,2024-11-13_23h12.02.220,intentional_binding,2024.1.5,None,2024-11-13 23h12.14.890244 +0530,
0.4,1000,exp,12,1,145,4,610.5253387000412,,610.5119306002744,610.5253387000412,611.5252808001824,611.5252808001824,611.5252808001824,611.9104290003888,space,0.3743557999841869,None,611.9113272000104,612.3249857668454,612.6385959000327,612.6234860001132,612.6235362002626,612.6385959000327,612.6385959000327,612.6385959000327,613.6265930002555,100,1,[1.0004649995826185],[1.0004815999418497],1,001,2024-11-13_23h12.02.220,intentional_binding,2024.1.5,None,2024-11-13 23h12.14.890244 +0530,
0.1,1000,exp,12,2,146,9,613.6417085002176,,613.6286341003142,613.6417085002176,614.6419229004532,614.6419229004532,614.6419229004532,614.7270414000377,space,None,None,614.7280302001163,614.8417436667407,615.148581800051,615.1336335004307,615.1336739002727,615.148581800051,615.148581800051,615.148581800051,616.0266743004322,100,1,[0.8906629998236895],[0.8906768998131156],1,001,2024-11-13_23h12.02.220,intentional_binding,2024.1.5,None,2024-11-13 23h12.14.890244 +0530,
0.1,400,unexp,12,3,147,0,616.041766800452,,616.0283675002865,616.041766800452,617.0420696004294,617.0420696004294,617.0420696004294,617.3266554004513,space,0.268130199983716,None,617.3275148002431,617.4420033670651,617.7493785000406,617.7344051003456,617.7344544003718,617.7493785000406,617.7493785000406,617.7493785000406,618.5772906001657,100,1,[0.8399037001654506],[0.8399390000849962],1,001,2024-11-13_23h12.02.220,intentional_binding,2024.1.5,None,2024-11-13 23h12.14.890244 +0530,
0.4,1000,exp,12,4,148,7,618.5916986004449,,618.5786842000671,618.5916986004449,619.5918850000016,619.5918850000016,619.5918850000016,619.8931758003309,space,0.2876257002353668,None,619.8938280004077,620.3084847666944,620.6176957003772,620.603335400112,620.6034149001352,620.6176957003772,620.6176957003772,620.6176957003772,621.2596348002553,300,1,[0.6534250001423061],[0.6534346002154052],1,001,2024-11-13_23h12.02.220,intentional_binding,2024.1.5,None,2024-11-13 23h12.14.890244 +0530,
0.7,1000,exp,12,5,149,8,621.2748633003794,,621.261183200404,621.2748633003794,622.2748202001676,622.2748202001676,622.2748202001676,622.4268606002443,space,0.14151659980416298,None,622.427590300329,623.1411626670199,623.4614215004258,623.4450930003077,623.4451256003231,623.4614215004258,623.4614215004258,623.4614215004258,624.561090500094,600,1,[1.1133166998624802],[1.1133508998900652],1,001,2024-11-13_23h12.02.220,intentional_binding,2024.1.5,None,2024-11-13 23h12.14.890244 +0530,
0.7,1000,exp,12,6,150,5,624.5750963003375,,624.5622994001023,624.5750963003375,625.575105200056,625.575105200056,625.575105200056,625.8265301003121,space,0.24546359991654754,None,625.827178500127,626.5416320670085,626.8516529002227,626.8334500002675,626.8334917002358,626.8516529002227,626.8516529002227,626.8516529002227,627.8270527003333,700,1,[0.9911444997414947],[0.9911571000702679],1,001,2024-11-13_23h12.02.220,intentional_binding,2024.1.5,None,2024-11-13 23h12.14.890244 +0530,
0.7,400,unexp,12,7,151,2,627.8416604003869,,627.8288630000316,627.8416604003869,628.8416691003367,628.8416691003367,628.8416691003367,628.9932480002753,space,0.14657930005341768,None,628.9942115000449,629.7079990669774,630.0182400001213,630.0032112002373,630.0032649002969,630.0182400001213,630.0182400001213,630.0182400001213,631.2407161002047,800,1,[1.2346629998646677],[1.234673900064081],1,001,2024-11-13_23h12.02.220,intentional_binding,2024.1.5,None,2024-11-13 23h12.14.890244 +0530,
0.1,1000,exp,12,8,152,6,631.2561141001061,,631.2418015003204,631.2561141001061,632.241680000443,632.241680000443,632.2581864004023,632.5429949001409,space,0.28573689982295036,None,632.5436160000972,632.6577825667957,632.9587730001658,632.9439071002416,632.9439716003835,632.9587730001658,632.9587730001658,632.9587730001658,634.2430411004461,100,1,[1.2965047000907362],[1.2965158000588417],1,001,2024-11-13_23h12.02.220,intentional_binding,2024.1.5,None,2024-11-13 23h12.14.890244 +0530,
0.1,1000,exp,12,9,153,3,634.2582071004435,,634.2443130002357,634.2582071004435,635.2581874001771,635.2581874001771,635.2581874001771,636.127871800214,space,0.867223999928683,None,636.1288405000232,636.2416621670748,636.5503820003942,636.5333118000999,636.5333574004471,636.5503820003942,636.5503820003942,636.5503820003942,637.4431568002328,100,1,[0.9073557001538575],[0.907368800137192],1,001,2024-11-13_23h12.02.220,intentional_binding,2024.1.5,None,2024-11-13 23h12.14.890244 +0530,
0.7,1000,exp,12,10,154,11,637.4582279003225,,637.4448906001635,637.4582279003225,638.45812580036,638.45812580036,638.45812580036,638.709778400138,space,0.23453379981219769,None,638.7105379002169,639.4224174670564,639.7395119001158,639.7235743002966,639.7236236003228,639.7395119001158,639.7395119001158,639.7395119001158,641.0429626000114,400,1,[1.3169510001316667],[1.3169661997817457],1,001,2024-11-13_23h12.02.220,intentional_binding,2024.1.5,None,2024-11-13 23h12.14.890244 +0530,
0.4,1000,exp,12,11,155,10,641.0579953002743,,641.0449354001321,641.0579953002743,642.0581810004078,642.0581810004078,642.0581810004078,642.2274408000521,space,0.16120109986513853,None,642.2285939003341,642.6412410666856,642.9555753003806,642.9401505002752,642.9402331002057,642.9555753003806,642.9555753003806,642.9555753003806,644.1428762003779,600,1,[1.1999547998420894],[1.1999672995880246],1,001,2024-11-13_23h12.02.220,intentional_binding,2024.1.5,None,2024-11-13 23h12.14.890244 +0530,
0.4,1000,exp,13,0,156,10,644.1580641004257,,644.1441222000867,644.1580641004257,645.1577987000346,645.1577987000346,645.1577987000346,645.3769549001008,space,0.2140124998986721,None,645.3778278999962,645.7911627670439,646.0984760001302,646.0835256003775,646.0835691001266,646.0984760001302,646.0984760001302,646.0984760001302,650.7598067000508,300,1,[4.673835100140423],[4.673846700228751],1,001,2024-11-13_23h12.02.220,intentional_binding,2024.1.5,None,2024-11-13 23h12.14.890244 +0530,
0.4,1000,exp,13,1,157,7,650.7744241002947,,650.7611223002896,650.7744241002947,651.7747605000623,651.7747605000623,651.7747605000623,651.9105312000029,space,0.13272489979863167,None,651.9111813004129,652.3240796668144,652.6286371001042,652.6147687002085,652.6148111000657,652.6286371001042,652.6286371001042,652.6286371001042,654.2089206003584,600,1,[1.5918652997352183],[1.5918902000412345],1,001,2024-11-13_23h12.02.220,intentional_binding,2024.1.5,None,2024-11-13 23h12.14.890244 +0530,
0.7,400,unexp,13,2,158,2,654.2244726000354,,654.2106087002903,654.2244726000354,655.2246127002873,655.2246127002873,655.2246127002873,655.2594079002738,space,0.019433799665421247,None,655.2602225001901,655.9743090668383,656.2885913001373,656.2732802000828,656.2733281003311,656.2885913001373,656.2885913001373,656.2885913001373,657.5434860000387,900,1,[1.2673307000659406],[1.267348799854517],1,001,2024-11-13_23h12.02.220,intentional_binding,2024.1.5,None,2024-11-13 23h12.14.890244 +0530,
0.1,1000,exp,13,3,159,3,657.557425300125,,657.544894900173,657.557425300125,658.5576832001098,658.5576832001098,658.5576832001098,658.8758529000916,space,0.30846069986000657,None,658.876489800401,658.990596166874,,659.248277600389,659.2483133003116,659.2625947003253,659.2625947003253,659.2625947003253,660.3589492002502,100,1,[1.1085078003816307],[1.108519600238651],1,001,2024-11-13_23h12.02.220,intentional_binding,2024.1.5,None,2024-11-13 23h12.14.890244 +0530,
0.7,1000,exp,13,4,160,8,660.3743429002352,,660.3604268003255,660.3743429002352,661.3746642000042,661.3746642000042,661.3746642000042,661.692387000192,space,0.3098106998950243,None,661.6932320003398,662.4077041666644,662.7210752000101,662.7031004000455,662.7031404003501,662.7210752000101,662.7210752000101,662.7210752000101,666.2930286000483,600 ,1,[3.5869745002128184],[3.5869921003468335],1,001,2024-11-13_23h12.02.220,intentional_binding,2024.1.5,None,2024-11-13 23h12.14.890244 +0530,
0.1,1000,exp,13,5,161,6,666.3074549003504,,666.2942428002134,666.3074549003504,667.3054690002464,667.3054690002464,667.3219055002555,667.3924710000865,space,0.07822440005838871,None,667.3931905003265,667.5077407668034,667.818138900213,667.8034227001481,667.8034759000875,667.818138900213,667.818138900213,667.818138900213,669.5603927001357,300,1,[1.7539598001167178],[1.7539756000041962],1,001,2024-11-13_23h12.02.220,intentional_binding,2024.1.5,None,2024-11-13 23h12.14.890244 +0530,
0.1,1000,exp,13,6,162,9,669.5744283003733,,669.561540200375,669.5744283003733,670.5744344000705,670.5744344000705,670.5744344000705,670.9255756000057,space,0.34088069992139935,None,670.9261915003881,671.0407747668835,671.3550033001229,671.3392625004053,671.3393004001118,671.3550033001229,671.3550033001229,671.3550033001229,672.6444856002927,300,1,[1.3019297998398542],[1.301944799721241],1,001,2024-11-13_23h12.02.220,intentional_binding,2024.1.5,None,2024-11-13 23h12.14.890244 +0530,
0.1,400,unexp,13,7,163,0,672.6578648001887,,672.645667700097,672.6578648001887,673.657579800114,673.657579800114,673.657579800114,673.75920650037,space,0.08570459997281432,None,673.7600184003823,673.8740020669686,674.1892831004225,674.1739516002126,674.1739992001094,674.1892831004225,674.1892831004225,674.1892831004225,675.0922695002519,500,1,[0.9157675998285413],[0.9157785000279546],1,001,2024-11-13_23h12.02.220,intentional_binding,2024.1.5,None,2024-11-13 23h12.14.890244 +0530,
0.4,400,unexp,13,8,164,1,675.1074560000561,,675.0939052002504,675.1074560000561,676.1075203004293,676.1075203004293,676.1075203004293,676.2089862003922,space,0.09679519990459085,None,676.2097182003781,676.6238385667714,676.9349684002809,676.920696400106,676.9207417001016,676.9349684002809,676.9349684002809,676.9349684002809,678.109081600327,400,1,[1.1860956000164151],[1.1861085002310574],1,001,2024-11-13_23h12.02.220,intentional_binding,2024.1.5,None,2024-11-13 23h12.14.890244 +0530,
0.7,1000,exp,13,9,165,11,678.1245893002488,,678.1103397002444,678.1245893002488,679.1242166003212,679.1242166003212,679.1242166003212,679.1769046001136,space,0.04286869987845421,None,679.1784097002819,679.8903648667658,680.1990880002268,680.1835808004253,680.1836324003525,680.1990880002268,680.1990880002268,680.1990880002268,681.2586156004108,500,1,[1.0724412999115884],[1.072451100219041],1,001,2024-11-13_23h12.02.220,intentional_binding,2024.1.5,None,2024-11-13 23h12.14.890244 +0530,
0.4,1000,exp,13,10,166,4,681.2742163003422,,681.260072500445,681.2742163003422,682.2741155000404,682.2741155000404,682.2741155000404,682.392302100081,space,None,None,682.393647200428,682.8073090669388,683.1189267002046,683.1031869002618,683.1033060001209,683.1189267002046,683.1189267002046,683.1189267002046,684.0924924002029,400,1,[0.9860698999837041],[0.9860817999579012],1,001,2024-11-13_23h12.02.220,intentional_binding,2024.1.5,None,2024-11-13 23h12.14.890244 +0530,
0.7,1000,exp,13,11,167,5,684.10729800025,,684.0939311003312,684.10729800025,685.1074509001337,685.1074509001337,685.1074509001337,685.1931326002814,space,0.07674289960414171,None,685.1939524002373,685.9068360669228,,686.1834082002752,686.1834662002511,686.2001934000291,686.2001934000291,686.2001934000291,687.4929042002186,500,1,[1.3064148998819292],[1.306429899763316],1,001,2024-11-13_23h12.02.220,intentional_binding,2024.1.5,None,2024-11-13 23h12.14.890244 +0530,
0.4,1000,exp,14,0,168,4,687.5070592002012,,687.494336000178,687.5070592002012,688.5069209001958,688.5069209001958,688.5069209001958,688.5416873004287,space,0.0319858998991549,None,688.5424338001758,688.9570831671047,,689.2135100001469,689.2135590002872,689.2289471002296,689.2289471002296,689.2289471002296,690.459408600349,800,1,[1.2432170999236405],[1.2432300997897983],1,001,2024-11-13_23h12.02.220,intentional_binding,2024.1.5,None,2024-11-13 23h12.14.890244 +0530,
0.4,1000,exp,14,1,169,7,690.4740573000163,,690.46075320011,690.4740573000163,691.4739582003094,691.4739582003094,691.4905269001611,691.6086879000068,space,0.11818879982456565,None,691.6095216004178,692.023588967106,692.3388952002861,692.3240104001015,692.3240506001748,692.3388952002861,692.3388952002861,692.3388952002861,694.3592097000219,100 ,1,[2.030037499964237],[2.0300509999506176],1,001,2024-11-13_23h12.02.220,intentional_binding,2024.1.5,None,2024-11-13 23h12.14.890244 +0530,
0.7,1000,exp,14,2,170,8,694.3737686001696,,694.3604036001489,694.3737686001696,695.3739311001264,695.3739311001264,695.3739311001264,696.8093650001101,space,1.4195626000873744,None,696.8103300002404,697.523540867089,697.8364288001321,697.8230054001324,697.8230476002209,697.8364288001321,697.8364288001321,697.8364288001321,701.1925942003727,200,1,[3.3670322000980377],[3.367044399958104],1,001,2024-11-13_23h12.02.220,intentional_binding,2024.1.5,None,2024-11-13 23h12.14.890244 +0530,
0.7,1000,exp,14,3,171,5,701.2071053003892,,701.1942041004077,701.2071053003892,702.2071633003652,702.2071633003652,702.2071633003652,702.357983100228,space,0.13453139970079064,None,702.3587629999965,703.0734724668475,703.3878671000712,703.3733735000715,703.3734206003137,703.3878671000712,703.3878671000712,703.3878671000712,704.9930996000767,500,1,[1.6169746997766197],[1.616988600231707],1,001,2024-11-13_23h12.02.220,intentional_binding,2024.1.5,None,2024-11-13 23h12.14.890244 +0530,
0.1,1000,exp,14,4,172,9,705.0069798002951,,704.9943384001963,705.0069798002951,706.0071592000313,706.0071592000313,706.0071592000313,706.1253026002087,space,0.10153340036049485,None,706.1260608001612,706.2402126668642,706.5485288002528,706.5333321001381,706.533379800152,706.5485288002528,706.5485288002528,706.5485288002528,708.2266625002958,300,1,[1.6900980998761952],[1.6901145000010729],1,001,2024-11-13_23h12.02.220,intentional_binding,2024.1.5,None,2024-11-13 23h12.14.890244 +0530,
0.1,1000,exp,14,5,173,6,708.2401360003278,,708.2282211002894,708.2401360003278,709.2402520002797,709.2402520002797,709.2402520002797,709.4588559004478,space,0.21379069983959198,None,709.459773900453,709.5733633670645,709.8897342002019,709.873656200245,709.8737327000126,709.8897342002019,709.8897342002019,709.8897342002019,711.4896870004013,200,1,[1.6133191999979317],[1.6133320997469127],1,001,2024-11-13_23h12.02.220,intentional_binding,2024.1.5,None,2024-11-13 23h12.14.890244 +0530,
0.7,1000,exp,14,6,174,11,711.504153800197,,711.4910311000422,711.504153800197,712.4902194002643,712.4902194002643,712.5065074004233,712.6419472000562,space,0.14899219991639256,None,712.6426622001454,713.3567767670067,713.6694328002632,713.6548112002201,713.6548543004319,713.6694328002632,713.6694328002632,713.6694328002632,715.8245099000633,400,1,[2.1672081002034247],[2.167218199931085],1,001,2024-11-13_23h12.02.220,intentional_binding,2024.1.5,None,2024-11-13 23h12.14.890244 +0530,
0.1,400,unexp,14,7,175,0,715.839886400383,,715.8257174002938,715.839886400383,716.840313100256,716.840313100256,716.840313100256,717.1578667000867,space,0.31123630004003644,None,717.1585470000282,717.273264466847,717.6085955002345,717.5941444002092,717.5941823003814,717.6085955002345,717.6085955002345,717.6085955002345,720.075534300413,500,1,[2.4786867001093924],[2.4787090998142958],1,001,2024-11-13_23h12.02.220,intentional_binding,2024.1.5,None,2024-11-13 23h12.14.890244 +0530,
0.1,1000,exp,14,8,176,3,720.0898871002719,,720.0771927000023,720.0898871002719,721.0900588002987,721.0900588002987,721.0900588002987,721.8767635002732,space,0.7838750998489559,None,721.8777914000675,721.9897569670031,722.2984098000452,722.2831205003895,722.2831719000824,722.2984098000452,722.2984098000452,722.2984098000452,723.5558305000886,300,1,[1.2700203997083008],[1.2700446997769177],1,001,2024-11-13_23h12.02.220,intentional_binding,2024.1.5,None,2024-11-13 23h12.14.890244 +0530,
0.4,400,unexp,14,9,177,1,723.5708484002389,,723.5579607002437,723.5708484002389,724.5569480000995,724.5569480000995,724.573283100035,724.8587539000437,space,0.2897605998441577,None,724.8596747000702,725.2729325667644,725.5815515001304,725.5642464002594,725.5643050000072,725.5815515001304,725.5815515001304,725.5815515001304,726.8757002004422,400,1,[1.3083472000434995],[1.308362300042063],1,001,2024-11-13_23h12.02.220,intentional_binding,2024.1.5,None,2024-11-13 23h12.14.890244 +0530,
0.4,1000,exp,14,10,178,10,726.8898080000654,,726.8777989000082,726.8898080000654,727.8899470004253,727.8899470004253,727.8899470004253,728.2919223001227,space,0.3981902003288269,None,728.2928608004004,728.7066447670261,729.0180463003926,729.0035141003318,729.0035793003626,729.0180463003926,729.0180463003926,729.0180463003926,730.3082872000523,300,1,[1.3021464999765158],[1.3021575999446213],1,001,2024-11-13_23h12.02.220,intentional_binding,2024.1.5,None,2024-11-13 23h12.14.890244 +0530,
0.7,400,unexp,14,11,179,2,730.3230289001949,,730.3095942004584,730.3230289001949,731.3231977000833,731.3231977000833,731.3231977000833,732.3249775003642,space,0.9885180001147091,None,732.3257696004584,733.0395188667501,733.3482963000424,733.3331023002975,733.3331569000147,733.3482963000424,733.3482963000424,733.3482963000424,736.3753383001313,300,1,[3.0394838000647724],[3.0395162999629974],1,001,2024-11-13_23h12.02.220,intentional_binding,2024.1.5,None,2024-11-13 23h12.14.890244 +0530,
0.1,1000,exp,15,0,180,6,736.3896803003736,,736.376540900208,736.3896803003736,737.3898188001476,737.3898188001476,737.3898188001476,737.4751181001775,space,0.08021479984745383,None,737.47602130007,737.5896451669435,737.8986534001306,737.8831105004065,737.8831586004235,737.8986534001306,737.8986534001306,737.8986534001306,740.3421203000471,600,1,[2.456225300207734],[2.4562451001256704],1,001,2024-11-13_23h12.02.220,intentional_binding,2024.1.5,None,2024-11-13 23h12.14.890244 +0530,
0.1,400,unexp,15,1,181,0,740.3563818000257,,740.3440076000988,740.3563818000257,741.3564077001065,741.3564077001065,741.3564077001065,741.5581211000681,space,0.19385339971631765,None,741.5590428002179,741.673315266675,741.9805209003389,741.9657781003043,741.9658168000169,741.9805209003389,741.9805209003389,741.9805209003389,743.2241259003058,400,1,[1.256097299978137],[1.2561099999584258],1,001,2024-11-13_23h12.02.220,intentional_binding,2024.1.5,None,2024-11-13 23h12.14.890244 +0530,
0.4,1000,exp,15,2,182,10,743.239473100286,,743.2254711003043,743.239473100286,744.2394111002795,744.2394111002795,744.2394111002795,744.6574654001743,space,0.4074141997843981,None,744.6582609000616,745.0728090666855,745.389298000373,745.3738949000835,745.373955400195,745.389298000373,745.389298000373,745.389298000373,748.3586236000992,500,1,[2.9820628999732435],[2.9820793997496367],1,001,2024-11-13_23h12.02.220,intentional_binding,2024.1.5,None,2024-11-13 23h12.14.890244 +0530,
0.7,1000,exp,15,3,183,5,748.3728845003061,,748.3598543000408,748.3728845003061,749.3729367000051,749.3729367000051,749.3729367000051,749.4918266003951,space,0.10467740008607507,None,749.4929155004211,750.2061033668617,750.5193619001657,750.5040304004215,750.5040742000565,750.5193619001657,750.5193619001657,750.5193619001657,753.0079940003343,800,1,[2.501113200094551],[2.501124099828303],1,001,2024-11-13_23h12.02.220,intentional_binding,2024.1.5,None,2024-11-13 23h12.14.890244 +0530,
0.4,1000,exp,15,4,184,4,753.0228288001381,,753.0094533003867,753.0228288001381,754.0227727000602,754.0227727000602,754.0227727000602,754.5577519000508,space,0.525462600402534,None,754.558534800075,754.9723955668198,755.2878187000751,755.273252800107,755.2732962002046,755.2878187000751,755.2878187000751,755.2878187000751,757.8739978000522,600,1,[2.5984159000217915],[2.598426999989897],1,001,2024-11-13_23h12.02.220,intentional_binding,2024.1.5,None,2024-11-13 23h12.14.890244 +0530,
0.1,1000,exp,15,5,185,9,757.8894370002672,,757.875596200116,757.8894370002672,758.8896922999993,758.8896922999993,758.8896922999993,759.1587692000903,space,0.2658164002932608,None,759.15974510042,759.2727267668272,759.5798698002473,759.5635284003802,759.5635797004215,759.5798698002473,759.5798698002473,759.5798698002473,761.6245724000037,300,1,[2.0589270000346005],[2.058939200360328],1,001,2024-11-13_23h12.02.220,intentional_binding,2024.1.5,None,2024-11-13 23h12.14.890244 +0530,
0.4,400,unexp,15,6,186,1,761.6393276001327,,761.6258503003046,761.6393276001327,762.6393268001266,762.6393268001266,762.6393268001266,762.9074650001712,space,0.26205889973789454,None,762.9080763002858,763.3225762667755,763.6280526001938,763.6130023002625,763.6130466000177,763.6280526001938,763.6280526001938,763.6280526001938,764.7741037001833,500,1,[1.1586632002145052],[1.1586747001856565],1,001,2024-11-13_23h12.02.220,intentional_binding,2024.1.5,None,2024-11-13 23h12.14.890244 +0530,
0.1,1000,exp,15,7,187,3,764.7893531001173,,764.7754398002289,764.7893531001173,765.7895359001122,765.7895359001122,765.7895359001122,766.0580073003657,space,0.261268800124526,None,766.058743300382,766.1726811668525,766.4807829000056,766.462939500343,766.4629944004118,766.4807829000056,766.4807829000056,766.4807829000056,767.6252167001367,500,1,[1.1591036999598145],[1.1591186998412013],1,001,2024-11-13_23h12.02.220,intentional_binding,2024.1.5,None,2024-11-13 23h12.14.890244 +0530,
0.7,1000,exp,15,8,188,11,767.6392459003255,,767.6263740002178,767.6392459003255,768.6398337003775,768.6398337003775,768.6398337003775,768.7578667001799,space,0.10579180018976331,None,768.7587503003888,769.4725293666745,769.7821139004081,769.7675553001463,769.7676031002775,769.7821139004081,769.7821139004081,769.7821139004081,771.5242034001276,900,1,[1.7539665000513196],[1.7539805001579225],1,001,2024-11-13_23h12.02.220,intentional_binding,2024.1.5,None,2024-11-13 23h12.14.890244 +0530,
0.4,1000,exp,15,9,189,7,771.5391481001861,,771.5259034000337,771.5391481001861,772.5394224002957,772.5394224002957,772.5394224002957,772.8076511002146,space,0.2609572997316718,None,772.8084236001596,773.2225403669911,,773.4828969002701,773.4829575000331,773.4974670000374,773.4974670000374,773.4974670000374,777.2411071001552,200,1,[3.7558916001580656],[3.7559060999192297],1,001,2024-11-13_23h12.02.220,intentional_binding,2024.1.5,None,2024-11-13 23h12.14.890244 +0530,
0.7,1000,exp,15,10,190,8,777.2555935001001,,777.2424326003529,777.2555935001001,778.2560904002748,778.2560904002748,778.2560904002748,778.790941900108,space,0.5233384999446571,None,778.791815600358,779.5057580667237,779.8429265003651,779.8268986004405,779.8270047004335,779.8429265003651,779.8429265003651,779.8429265003651,781.0909246001393,900,1,[1.2610899000428617],[1.2611015997827053],1,001,2024-11-13_23h12.02.220,intentional_binding,2024.1.5,None,2024-11-13 23h12.14.890244 +0530,
0.7,400,unexp,15,11,191,2,781.105493800249,,781.0927513004281,781.105493800249,782.1053554001264,782.1053554001264,782.1053554001264,782.3912169001997,space,0.27818330004811287,None,782.3921678001061,783.1052152668747,,783.3569846004248,783.3570324000902,783.3731551002711,783.3731551002711,783.3731551002711,784.6408526003361,800,1,[1.2807359998114407],[1.280752900056541],1,001,2024-11-13_23h12.02.220,intentional_binding,2024.1.5,None,2024-11-13 23h12.14.890244 +0530,
0.4,1000,exp,16,0,192,10,784.6553438003175,,784.6426129001193,784.6553438003175,785.6563960001804,785.6563960001804,785.6563960001804,785.7738973000087,space,0.112947600428015,None,785.7748441002332,786.1889871666829,786.4968373002484,786.4829276003875,786.4829698000103,786.4968373002484,786.4968373002484,786.4968373002484,787.4906905000098,400,1,[1.0054056998342276],[1.0054184002801776],1,001,2024-11-13_23h12.02.220,intentional_binding,2024.1.5,None,2024-11-13 23h12.14.890244 +0530,
0.1,1000,exp,16,1,193,9,787.505501600448,,787.491942200344,787.505501600448,788.5057530002668,788.5057530002668,788.5057530002668,788.7592215002514,space,0.25001040007919073,None,788.7601766004227,788.8723552670019,789.1777955000289,789.1629627002403,789.1630120002665,789.1777955000289,789.1777955000289,789.1777955000289,790.0576937003061,100,1,[0.8921135002747178],[0.8921269001439214],1,001,2024-11-13_23h12.02.220,intentional_binding,2024.1.5,None,2024-11-13 23h12.14.890244 +0530,
0.1,1000,exp,16,2,194,6,790.0725854001939,,790.0594569002278,790.0725854001939,791.0721499002539,791.0721499002539,791.0721499002539,792.4246780001558,space,1.349077200051397,None,792.4255866003223,792.5385695668558,792.8492682003416,792.8329123002477,792.8329635001719,792.8492682003416,792.8492682003416,792.8492682003416,794.3736919001676,300,1,[1.5381465000100434],[1.5381590998731554],1,001,2024-11-13_23h12.02.220,intentional_binding,2024.1.5,None,2024-11-13 23h12.14.890244 +0530,
0.1,400,unexp,16,3,195,0,794.3885356001556,,794.375055000186,794.3885356001556,795.3887900002301,795.3887900002301,795.3887900002301,795.5069892001338,space,0.11226949980482459,None,795.5076435999945,795.6219262667621,795.9247950003482,795.9129409003071,795.9129810002632,795.9247950003482,795.9247950003482,795.9247950003482,797.9237395003438,300,1,[2.008420600090176],[2.0084377001039684],1,001,2024-11-13_23h12.02.220,intentional_binding,2024.1.5,None,2024-11-13 23h12.14.890244 +0530,
0.1,1000,exp,16,4,196,3,797.9383064000867,,797.924980700016,797.9383064000867,798.9385537002236,798.9385537002236,798.9385537002236,799.5901283002459,space,0.6486224001273513,None,799.5909545002505,799.7047788669045,800.021930300165,800.0068775000982,800.0069035002962,800.021930300165,800.021930300165,800.021930300165,800.6905317003839,100,1,[0.6817576996982098],[0.6817723996937275],1,001,2024-11-13_23h12.02.220,intentional_binding,2024.1.5,None,2024-11-13 23h12.14.890244 +0530,
0.7,1000,exp,16,5,197,8,800.7051839004271,,800.6918525001965,800.7051839004271,801.7050376003608,801.7050376003608,801.7050376003608,802.0396290002391,space,0.3248461000621319,None,802.04039880028,802.7549464670631,,803.0353233003989,803.0353732001968,803.0526123000309,803.0526123000309,803.0526123000309,805.7899545002729,700,1,[2.752258100081235],[2.752270400058478],1,001,2024-11-13_23h12.02.220,intentional_binding,2024.1.5,None,2024-11-13 23h12.14.890244 +0530,
0.4,1000,exp,16,6,198,7,805.8051815000363,,805.7913496000692,805.8051815000363,806.8053100001998,806.8053100001998,806.8053100001998,806.9399417000823,space,0.11777620017528534,None,806.9407953000627,807.3551584669078,807.6735489000566,807.6539530004375,807.6540143000893,807.6735489000566,807.6735489000566,807.6735489000566,808.7074472000822,500,1,[1.0499992999248207],[1.0500113000161946],1,001,2024-11-13_23h12.02.220,intentional_binding,2024.1.5,None,2024-11-13 23h12.14.890244 +0530,
0.7,1000,exp,16,7,199,11,808.7220176002011,,808.7087822002359,808.7220176002011,809.7219578004442,809.7219578004442,809.7219578004442,810.0263501000591,space,0.30113880010321736,None,810.0273753004149,810.7385896668459,811.0561807001941,811.0383567004465,811.0384029000998,811.0561807001941,811.0561807001941,811.0561807001941,811.9228570000269,400,1,[0.8823013999499381],[0.882311999797821],1,001,2024-11-13_23h12.02.220,intentional_binding,2024.1.5,None,2024-11-13 23h12.14.890244 +0530,
0.7,1000,exp,16,8,200,5,811.938189800363,,811.9245908004232,811.938189800363,812.9385101003572,812.9385101003572,812.9385101003572,813.073353800457,space,0.12760100001469254,None,813.0742399003357,813.7883257670949,814.0936238002032,814.078060600441,814.0781460003927,814.0936238002032,814.0936238002032,814.0936238002032,815.3742383001372,800,1,[1.293381200172007],[1.2933930000290275],1,001,2024-11-13_23h12.02.220,intentional_binding,2024.1.5,None,2024-11-13 23h12.14.890244 +0530,
0.4,400,unexp,16,9,201,1,815.3888353002258,,815.3754597003572,815.3888353002258,816.3885240000673,816.3885240000673,816.3885240000673,816.4413756001741,space,0.04933719988912344,None,816.4423392000608,816.8549303669172,817.1664375001565,817.152612300124,817.1526495004073,817.1664375001565,817.1664375001565,817.1664375001565,818.707202100195,200,1,[1.5522314999252558],[1.5522453002631664],1,001,2024-11-13_23h12.02.220,intentional_binding,2024.1.5,None,2024-11-13 23h12.14.890244 +0530,
0.4,1000,exp,16,10,202,4,818.72189740045,,818.7091402001679,818.72189740045,819.7217918001115,819.7217918001115,819.7217918001115,819.8231245004572,space,0.08477539988234639,None,819.8239138000645,820.238293866689,820.5479286001064,820.5329257003032,820.5329808001406,820.5479286001064,820.5479286001064,820.5479286001064,821.7734365002252,400,1,[1.2377364002168179],[1.2377485004253685],1,001,2024-11-13_23h12.02.220,intentional_binding,2024.1.5,None,2024-11-13 23h12.14.890244 +0530,
