reward_today,future_reward,delay,trials.thisRepN,trials.thisTrialN,trials.thisN,trials.thisIndex,thisRow.t,notes,trial.started,fixation.started,text.started,key_resp.started,fixation.stopped,trial.stopped,key_resp.keys,key_resp.rt,key_resp.duration,participant,session,date,expName,psychopyVersion,frameRate,expStart,
49,60,89,0,0,0,4,0.17640370002482086,,0.013626900035887957,0.17640370002482086,1.0037563999649137,1.0037563999649137,1.1871383000398055,4.389075399958529,t,3.381317300023511,None,4,001,2024-11-20_12h13.27.676,delay_discounting,2024.1.5,None,2024-11-20 12h13.39.314288 +0530,
67,75,119,0,1,1,5,4.407419200055301,,4.390938400058076,4.407419200055301,5.403769999975339,5.403769999975339,5.420023999991827,7.689210599986836,t,2.2834525000071153,None,4,001,2024-11-20_12h13.27.676,delay_discounting,2024.1.5,None,2024-11-20 12h13.39.314288 +0530,
40,55,62,0,2,2,3,7.704058600007556,,7.690271200030111,7.704058600007556,8.703281000023708,8.703281000023708,8.703281000023708,10.405469399993308,t,1.690377700026147,None,4,001,2024-11-20_12h13.27.676,delay_discounting,2024.1.5,None,2024-11-20 12h13.39.314288 +0530,
27,50,21,0,3,3,2,10.419919100007974,,10.406767199980095,10.419919100007974,11.420114299980924,11.420114299980924,11.420114299980924,13.272074399981648,t,1.8467161000007764,None,4,001,2024-11-20_12h13.27.676,delay_discounting,2024.1.5,None,2024-11-20 12h13.39.314288 +0530,
78,80,162,0,4,4,6,13.286810799967498,,13.273361600004137,13.286810799967498,14.28676990000531,14.28676990000531,14.28676990000531,15.822762800031342,t,1.5336423999397084,None,4,001,2024-11-20_12h13.27.676,delay_discounting,2024.1.5,None,2024-11-20 12h13.39.314288 +0530,
11,30,7,0,5,5,0,15.838469499954954,,15.82400779996533,15.838469499954954,16.836864999961108,16.836864999961108,16.853423799970187,18.288764500059187,l,1.4451464000158012,None,4,001,2024-11-20_12h13.27.676,delay_discounting,2024.1.5,None,2024-11-20 12h13.39.314288 +0530,
15,35,43,0,6,6,1,18.303401799988933,,18.289936800021678,18.303401799988933,19.303396999952383,19.303396999952383,19.303396999952383,23.25526180001907,t,3.941292700008489,None,4,001,2024-11-20_12h13.27.676,delay_discounting,2024.1.5,None,2024-11-20 12h13.39.314288 +0530,
78,80,162,1,0,7,6,23.269943800056353,,23.256389099988155,23.269943800056353,24.27001650002785,24.27001650002785,24.27001650002785,25.555179100017995,t,1.2739652999443933,None,4,001,2024-11-20_12h13.27.676,delay_discounting,2024.1.5,None,2024-11-20 12h13.39.314288 +0530,
27,50,21,1,1,8,2,25.56994279997889,,25.556408799951896,25.56994279997889,26.569893599953502,26.569893599953502,26.569893599953502,28.104019099962898,t,1.5271967999869958,None,4,001,2024-11-20_12h13.27.676,delay_discounting,2024.1.5,None,2024-11-20 12h13.39.314288 +0530,
15,35,43,1,2,9,1,28.12002020003274,,28.10456799995154,28.12002020003274,29.119995999964885,29.119995999964885,29.119995999964885,31.771579800057225,t,2.6378297000192106,None,4,001,2024-11-20_12h13.27.676,delay_discounting,2024.1.5,None,2024-11-20 12h13.39.314288 +0530,
40,55,62,1,3,10,3,31.78642050002236,,31.772784000029787,31.78642050002236,32.78657690004911,32.78657690004911,32.78657690004911,36.28820579999592,t,3.486210100003518,None,4,001,2024-11-20_12h13.27.676,delay_discounting,2024.1.5,None,2024-11-20 12h13.39.314288 +0530,
49,60,89,1,4,11,4,36.30309639999177,,36.289614200009964,36.30309639999177,37.30311049998272,37.30311049998272,37.30311049998272,38.82178080000449,t,1.5051703000208363,None,4,001,2024-11-20_12h13.27.676,delay_discounting,2024.1.5,None,2024-11-20 12h13.39.314288 +0530,
11,30,7,1,5,12,0,38.83638880006038,,38.822942700004205,38.83638880006038,39.83642239996698,39.83642239996698,39.83642239996698,40.888087400002405,l,1.0375559000531211,None,4,001,2024-11-20_12h13.27.676,delay_discounting,2024.1.5,None,2024-11-20 12h13.39.314288 +0530,
67,75,119,1,6,13,5,40.90321260003839,,40.889135199948214,40.90321260003839,41.90304819995072,41.90304819995072,41.90304819995072,44.65448170003947,t,2.746665600105189,None,4,001,2024-11-20_12h13.27.676,delay_discounting,2024.1.5,None,2024-11-20 12h13.39.314288 +0530,
11,30,7,2,0,14,0,44.66967309999745,,44.65543180005625,44.66967309999745,45.669799000024796,45.669799000024796,45.669799000024796,48.45497520000208,l,2.7777554000495,None,4,001,2024-11-20_12h13.27.676,delay_discounting,2024.1.5,None,2024-11-20 12h13.39.314288 +0530,
67,75,119,2,1,15,5,48.4697161000222,,48.456162599963136,48.4697161000222,49.469609200023115,49.469609200023115,49.469609200023115,51.6212481999537,t,2.1358537999913096,None,4,001,2024-11-20_12h13.27.676,delay_discounting,2024.1.5,None,2024-11-20 12h13.39.314288 +0530,
49,60,89,2,2,16,4,51.63614389998838,,51.6225271000294,51.63614389998838,52.63620840001386,52.63620840001386,52.63620840001386,57.82169829995837,t,5.177881599985994,None,4,001,2024-11-20_12h13.27.676,delay_discounting,2024.1.5,None,2024-11-20 12h13.39.314288 +0530,
40,55,62,2,3,17,3,57.83603330003098,,57.82285889994819,57.83603330003098,58.83610069996212,58.83610069996212,58.83610069996212,60.02147050003987,t,1.1802993000019342,None,4,001,2024-11-20_12h13.27.676,delay_discounting,2024.1.5,None,2024-11-20 12h13.39.314288 +0530,
27,50,21,2,4,18,2,60.03607150004245,,60.022548499982804,60.03607150004245,61.03605730005074,61.03605730005074,61.03605730005074,64.2548254999565,l,3.209104499896057,None,4,001,2024-11-20_12h13.27.676,delay_discounting,2024.1.5,None,2024-11-20 12h13.39.314288 +0530,
15,35,43,2,5,19,1,64.2693084999919,,64.25592110003345,64.2693084999919,65.26969690003898,65.26969690003898,65.26969690003898,67.88780689996202,t,2.6008392999647185,None,4,001,2024-11-20_12h13.27.676,delay_discounting,2024.1.5,None,2024-11-20 12h13.39.314288 +0530,
78,80,162,2,6,20,6,67.90258820005693,,67.88895539997611,67.90258820005693,68.90248589997645,68.90248589997645,68.90248589997645,71.38716759998351,t,2.4735332999844104,None,4,001,2024-11-20_12h13.27.676,delay_discounting,2024.1.5,None,2024-11-20 12h13.39.314288 +0530,
67,75,119,3,0,21,5,71.40239279996604,,71.38839380000718,71.40239279996604,72.40250810002908,72.40250810002908,72.40250810002908,74.75603549997322,t,2.3471020000288263,None,4,001,2024-11-20_12h13.27.676,delay_discounting,2024.1.5,None,2024-11-20 12h13.39.314288 +0530,
27,50,21,3,1,22,2,74.76905949995853,,74.75718489999417,74.76905949995853,75.76917650003452,75.76917650003452,75.76917650003452,77.57067399995867,l,1.7971332999877632,None,4,001,2024-11-20_12h13.27.676,delay_discounting,2024.1.5,None,2024-11-20 12h13.39.314288 +0530,
15,35,43,3,2,23,1,77.58586330001708,,77.57188810000662,77.58586330001708,78.5858877999708,78.5858877999708,78.5858877999708,81.62097699998412,l,3.0283531999448314,None,4,001,2024-11-20_12h13.27.676,delay_discounting,2024.1.5,None,2024-11-20 12h13.39.314288 +0530,
78,80,162,3,3,24,6,81.635676600039,,81.62212990003172,81.635676600039,82.63573600002564,82.63573600002564,82.63573600002564,84.38703690003604,t,1.734670199919492,None,4,001,2024-11-20_12h13.27.676,delay_discounting,2024.1.5,None,2024-11-20 12h13.39.314288 +0530,
40,55,62,3,4,25,3,84.40214919997379,,84.38832739996724,84.40214919997379,85.40233229997102,85.40233229997102,85.40233229997102,86.53721229999792,t,1.1205306999618188,None,4,001,2024-11-20_12h13.27.676,delay_discounting,2024.1.5,None,2024-11-20 12h13.39.314288 +0530,
11,30,7,3,5,26,0,86.55222029995639,,86.53818140004296,86.55222029995639,87.55232979997527,87.55232979997527,87.55232979997527,88.40501320001204,l,0.8494872000301257,None,4,001,2024-11-20_12h13.27.676,delay_discounting,2024.1.5,None,2024-11-20 12h13.39.314288 +0530,
49,60,89,3,6,27,4,88.41891999996733,,88.40619929996319,88.41891999996733,89.41909980005585,89.41909980005585,89.41909980005585,90.47105249995366,t,1.0378448999254033,None,4,001,2024-11-20_12h13.27.676,delay_discounting,2024.1.5,None,2024-11-20 12h13.39.314288 +0530,
78,80,162,4,0,28,6,90.48560689995065,,90.47224929998629,90.48560689995065,91.48563919996377,91.48563919996377,91.48563919996377,92.33728360000532,t,0.843065399909392,None,4,001,2024-11-20_12h13.27.676,delay_discounting,2024.1.5,None,2024-11-20 12h13.39.314288 +0530,
15,35,43,4,1,29,1,92.35233949997928,,92.33849949995056,92.35233949997928,93.35201859998051,93.35201859998051,93.35201859998051,95.00402019999456,t,1.640804099966772,None,4,001,2024-11-20_12h13.27.676,delay_discounting,2024.1.5,None,2024-11-20 12h13.39.314288 +0530,
40,55,62,4,2,30,3,95.01883129996713,,95.00506570003927,95.01883129996713,96.01875940000173,96.01875940000173,96.01875940000173,97.03751649998594,t,1.0106860001105815,None,4,001,2024-11-20_12h13.27.676,delay_discounting,2024.1.5,None,2024-11-20 12h13.39.314288 +0530,
49,60,89,4,3,31,4,97.05231699999422,,97.03838509996422,97.05231699999422,98.05215050000697,98.05215050000697,98.05215050000697,99.30409630003851,t,1.2452846999512985,None,4,001,2024-11-20_12h13.27.676,delay_discounting,2024.1.5,None,2024-11-20 12h13.39.314288 +0530,
27,50,21,4,4,32,2,99.31857000000309,,99.3051796000218,99.31857000000309,100.31891489995178,100.31891489995178,100.31891489995178,104.08723399997689,l,3.752804599935189,None,4,001,2024-11-20_12h13.27.676,delay_discounting,2024.1.5,None,2024-11-20 12h13.39.314288 +0530,
67,75,119,4,5,33,5,104.10213450004812,,104.08837729995139,104.10213450004812,105.10223119996954,105.10223119996954,105.10223119996954,108.97045370005071,t,3.8626129999756813,None,4,001,2024-11-20_12h13.27.676,delay_discounting,2024.1.5,None,2024-11-20 12h13.39.314288 +0530,
11,30,7,4,6,34,0,108.9851416000165,,108.97158550005406,108.9851416000165,109.98495910002384,109.98495910002384,109.98495910002384,110.63685500004794,l,0.6413529000710696,None,4,001,2024-11-20_12h13.27.676,delay_discounting,2024.1.5,None,2024-11-20 12h13.39.314288 +0530,
27,50,21,5,0,35,2,110.65185020002536,,110.63811679999344,110.65185020002536,111.65191240003332,111.65191240003332,111.65191240003332,112.76960160001181,l,1.1015555000631139,None,4,001,2024-11-20_12h13.27.676,delay_discounting,2024.1.5,None,2024-11-20 12h13.39.314288 +0530,
78,80,162,5,1,36,6,112.78516940004192,,112.77043170004617,112.78516940004192,113.78530430002138,113.78530430002138,113.78530430002138,114.57077940006275,t,0.7763952999375761,None,4,001,2024-11-20_12h13.27.676,delay_discounting,2024.1.5,None,2024-11-20 12h13.39.314288 +0530,
40,55,62,5,2,37,3,114.58533020003233,,114.57207560003735,114.58533020003233,115.58519719995093,115.58519719995093,115.58519719995093,116.57123140001204,t,0.9839177000103518,None,4,001,2024-11-20_12h13.27.676,delay_discounting,2024.1.5,None,2024-11-20 12h13.39.314288 +0530,
67,75,119,5,3,38,5,116.58517430000938,,116.5723800000269,116.58517430000938,117.58529419999104,117.58529419999104,117.58529419999104,123.47117180004716,t,5.883562700008042,None,4,001,2024-11-20_12h13.27.676,delay_discounting,2024.1.5,None,2024-11-20 12h13.39.314288 +0530,
11,30,7,5,4,39,0,123.48509930004366,,123.47229930001777,123.48509930004366,124.48502869997174,124.48502869997174,124.48502869997174,127.18652500002645,l,2.6850025999592617,None,4,001,2024-11-20_12h13.27.676,delay_discounting,2024.1.5,None,2024-11-20 12h13.39.314288 +0530,
15,35,43,5,5,40,1,127.20163749996573,,127.18751329998486,127.20163749996573,128.20191890001297,128.20191890001297,128.20191890001297,128.88696459995117,l,0.6757201000582427,None,4,001,2024-11-20_12h13.27.676,delay_discounting,2024.1.5,None,2024-11-20 12h13.39.314288 +0530,
49,60,89,5,6,41,4,128.90169820003211,,128.88809380005114,128.90169820003211,129.90172790002543,129.90172790002543,129.90172790002543,132.23617479996756,t,2.3282250000629574,None,4,001,2024-11-20_12h13.27.676,delay_discounting,2024.1.5,None,2024-11-20 12h13.39.314288 +0530,
49,60,89,6,0,42,4,132.25169459998142,,132.23712019994855,132.25169459998142,133.25142270000651,133.25142270000651,133.25142270000651,133.9863677000394,t,0.7308743000030518,None,4,001,2024-11-20_12h13.27.676,delay_discounting,2024.1.5,None,2024-11-20 12h13.39.314288 +0530,
78,80,162,6,1,43,6,134.00168159999885,,133.98737890005577,134.00168159999885,135.00162989995442,135.00162989995442,135.00162989995442,135.82013949996326,t,0.8056250000372529,None,4,001,2024-11-20_12h13.27.676,delay_discounting,2024.1.5,None,2024-11-20 12h13.39.314288 +0530,
67,75,119,6,2,44,5,135.834850299987,,135.8214514000574,135.834850299987,136.83500860002823,136.83500860002823,136.83500860002823,137.40359889995307,t,0.5590752999996766,None,4,001,2024-11-20_12h13.27.676,delay_discounting,2024.1.5,None,2024-11-20 12h13.39.314288 +0530,
11,30,7,6,3,45,0,137.41817670001183,,137.40489340003114,137.41817670001183,138.4183349000523,138.4183349000523,138.4183349000523,139.2028429999482,l,0.7790773999877274,None,4,001,2024-11-20_12h13.27.676,delay_discounting,2024.1.5,None,2024-11-20 12h13.39.314288 +0530,
40,55,62,6,4,46,3,139.21824720001314,,139.20374769996852,139.21824720001314,140.21823740005493,140.21823740005493,140.21823740005493,140.6700374999782,t,0.44672130001708865,None,4,001,2024-11-20_12h13.27.676,delay_discounting,2024.1.5,None,2024-11-20 12h13.39.314288 +0530,
27,50,21,6,5,47,2,140.68487350002397,,140.6711101999972,140.68487350002397,141.68483170005493,141.68483170005493,141.68483170005493,142.08658979996108,l,0.38902000000234693,None,4,001,2024-11-20_12h13.27.676,delay_discounting,2024.1.5,None,2024-11-20 12h13.39.314288 +0530,
15,35,43,6,6,48,1,142.10136960004456,,142.08814640005585,142.10136960004456,143.10130860004574,143.10130860004574,143.10130860004574,143.55355650000274,t,0.4483604000415653,None,4,001,2024-11-20_12h13.27.676,delay_discounting,2024.1.5,None,2024-11-20 12h13.39.314288 +0530,
49,60,89,7,0,49,4,143.56823760003317,,143.55485840002075,143.56823760003317,144.56817630003206,144.56817630003206,144.56817630003206,145.13683630002197,t,0.5646553999977186,None,4,001,2024-11-20_12h13.27.676,delay_discounting,2024.1.5,None,2024-11-20 12h13.39.314288 +0530,
78,80,162,7,1,50,6,145.15142020001076,,145.13798670005053,145.15142020001076,146.15156829997431,146.15156829997431,146.15156829997431,146.65336850006133,t,0.49123609997332096,None,4,001,2024-11-20_12h13.27.676,delay_discounting,2024.1.5,None,2024-11-20 12h13.39.314288 +0530,
67,75,119,7,2,51,5,146.66809349996038,,146.6544472000096,146.66809349996038,147.668165900046,147.668165900046,147.668165900046,148.20279250002932,t,0.5175700000254437,None,4,001,2024-11-20_12h13.27.676,delay_discounting,2024.1.5,None,2024-11-20 12h13.39.314288 +0530,
11,30,7,7,3,52,0,148.21811440004967,,148.20411579997744,148.21811440004967,149.21798399998806,149.21798399998806,149.21798399998806,149.92009939998388,l,0.7000474999658763,None,4,001,2024-11-20_12h13.27.676,delay_discounting,2024.1.5,None,2024-11-20 12h13.39.314288 +0530,
27,50,21,7,4,53,2,149.9350019999547,,149.92143530002795,149.9350019999547,150.93455320002977,150.93455320002977,150.93455320002977,151.58626320003532,l,0.6453061000211164,None,4,001,2024-11-20_12h13.27.676,delay_discounting,2024.1.5,None,2024-11-20 12h13.39.314288 +0530,
40,55,62,7,5,54,3,151.60141869995277,,151.5874489999842,151.60141869995277,152.60137349995784,152.60137349995784,152.60137349995784,153.85289229999762,t,1.2453813999891281,None,4,001,2024-11-20_12h13.27.676,delay_discounting,2024.1.5,None,2024-11-20 12h13.39.314288 +0530,
15,35,43,7,6,55,1,153.86806110001635,,153.85386160004418,153.86806110001635,154.8677906000521,154.8677906000521,154.8677906000521,156.13673639995977,t,1.2629092999268323,None,4,001,2024-11-20_12h13.27.676,delay_discounting,2024.1.5,None,2024-11-20 12h13.39.314288 +0530,
49,60,89,8,0,56,4,156.1511443000054,,156.13803030003328,156.1511443000054,157.1512693000259,157.1512693000259,157.1512693000259,157.7696071000537,t,0.6150956999044865,None,4,001,2024-11-20_12h13.27.676,delay_discounting,2024.1.5,None,2024-11-20 12h13.39.314288 +0530,
78,80,162,8,1,57,6,157.7860340999905,,157.77132219995838,157.7860340999905,158.7847331999801,158.7847331999801,158.80124209995847,159.25338710006326,t,0.45969250006601214,None,4,001,2024-11-20_12h13.27.676,delay_discounting,2024.1.5,None,2024-11-20 12h13.39.314288 +0530,
27,50,21,8,2,58,2,159.26804680004716,,159.25461659999564,159.26804680004716,160.26792859996203,160.26792859996203,160.26792859996203,160.8697921000421,l,0.596202899934724,None,4,001,2024-11-20_12h13.27.676,delay_discounting,2024.1.5,None,2024-11-20 12h13.39.314288 +0530,
40,55,62,8,3,59,3,160.88467259996105,,160.87084890005644,160.88467259996105,161.88456060003955,161.88456060003955,161.88456060003955,162.33628309995402,t,0.44760189997032285,None,4,001,2024-11-20_12h13.27.676,delay_discounting,2024.1.5,None,2024-11-20 12h13.39.314288 +0530,
11,30,7,8,4,60,0,162.35113750002347,,162.3374125000555,162.35113750002347,163.3512550999876,163.3512550999876,163.3512550999876,163.8196758000413,l,0.4548040999798104,None,4,001,2024-11-20_12h13.27.676,delay_discounting,2024.1.5,None,2024-11-20 12h13.39.314288 +0530,
15,35,43,8,5,61,1,163.83454029995482,,163.8208217000356,163.83454029995482,164.83457019994967,164.83457019994967,164.83457019994967,165.36966259998735,t,0.5280712000094354,None,4,001,2024-11-20_12h13.27.676,delay_discounting,2024.1.5,None,2024-11-20 12h13.39.314288 +0530,
67,75,119,8,6,62,5,165.3845534999855,,165.37070890003815,165.3845534999855,166.38443039997946,166.38443039997946,166.38443039997946,167.03748109994922,t,0.6499790999805555,None,4,001,2024-11-20_12h13.27.676,delay_discounting,2024.1.5,None,2024-11-20 12h13.39.314288 +0530,
27,50,21,9,0,63,2,167.0514056000393,,167.03840099996887,167.0514056000393,168.05113979999442,168.05113979999442,168.05113979999442,168.5860585999908,l,0.5199891999363899,None,4,001,2024-11-20_12h13.27.676,delay_discounting,2024.1.5,None,2024-11-20 12h13.39.314288 +0530,
11,30,7,9,1,64,0,168.60100050002802,,168.58721220004372,168.60100050002802,169.60110099997837,169.60110099997837,169.60110099997837,170.0372010000283,l,0.4296262999996543,None,4,001,2024-11-20_12h13.27.676,delay_discounting,2024.1.5,None,2024-11-20 12h13.39.314288 +0530,
49,60,89,9,2,65,4,170.0514409999596,,170.03820569999516,170.0514409999596,171.0510608999757,171.0510608999757,171.0510608999757,171.5191552999895,t,0.4511435000458732,None,4,001,2024-11-20_12h13.27.676,delay_discounting,2024.1.5,None,2024-11-20 12h13.39.314288 +0530,
40,55,62,9,3,66,3,171.53432710003108,,171.5204851999879,171.53432710003108,172.53443550004158,172.53443550004158,172.53443550004158,172.8694031999912,t,0.3185596999246627,None,4,001,2024-11-20_12h13.27.676,delay_discounting,2024.1.5,None,2024-11-20 12h13.39.314288 +0530,
78,80,162,9,4,67,6,172.8843531999737,,172.87060150003526,172.8843531999737,173.88426520000212,173.88426520000212,173.88426520000212,174.30289429996628,t,0.41698139999061823,None,4,001,2024-11-20_12h13.27.676,delay_discounting,2024.1.5,None,2024-11-20 12h13.39.314288 +0530,
15,35,43,9,5,68,1,174.3176214999985,,174.30373499996495,174.3176214999985,175.31772980000824,175.31772980000824,175.31772980000824,175.80265920003876,t,0.46906579995993525,None,4,001,2024-11-20_12h13.27.676,delay_discounting,2024.1.5,None,2024-11-20 12h13.39.314288 +0530,
67,75,119,9,6,69,5,175.81762760004494,,175.80376160005108,175.81762760004494,176.81775919999927,176.81775919999927,176.81775919999927,177.21947929996531,t,0.39446720003616065,None,4,001,2024-11-20_12h13.27.676,delay_discounting,2024.1.5,None,2024-11-20 12h13.39.314288 +0530,
15,35,43,10,0,70,1,177.2344428000506,,177.22093559999485,177.2344428000506,178.23420910001732,178.23420910001732,178.23420910001732,178.65253369999118,t,0.40155830001458526,None,4,001,2024-11-20_12h13.27.676,delay_discounting,2024.1.5,None,2024-11-20 12h13.39.314288 +0530,
40,55,62,10,1,71,3,178.6675711000571,,178.6540511000203,178.6675711000571,179.66748820000794,179.66748820000794,179.66748820000794,180.1031510999892,t,0.4219250000314787,None,4,001,2024-11-20_12h13.27.676,delay_discounting,2024.1.5,None,2024-11-20 12h13.39.314288 +0530,
67,75,119,10,2,72,5,180.12140900001395,,180.10465280001517,180.12140900001395,181.1177041999763,181.1177041999763,181.13424759998452,181.635496999952,t,0.5105120000662282,None,4,001,2024-11-20_12h13.27.676,delay_discounting,2024.1.5,None,2024-11-20 12h13.39.314288 +0530,
49,60,89,10,3,73,4,181.65087050001603,,181.6365515999496,181.65087050001603,182.65103389997967,182.65103389997967,182.65103389997967,183.2357398000313,t,0.5708417999558151,None,4,001,2024-11-20_12h13.27.676,delay_discounting,2024.1.5,None,2024-11-20 12h13.39.314288 +0530,
11,30,7,10,4,74,0,183.25088760000654,,183.23699919995852,183.25088760000654,184.25066739995964,184.25066739995964,184.25066739995964,184.55270879995078,t,0.28712290001567453,None,4,001,2024-11-20_12h13.27.676,delay_discounting,2024.1.5,None,2024-11-20 12h13.39.314288 +0530,
78,80,162,10,5,75,6,184.56743279995862,,184.5538847000571,184.56743279995862,185.56769090006128,185.56769090006128,185.56769090006128,186.33592109999154,t,0.7559719999553636,None,4,001,2024-11-20_12h13.27.676,delay_discounting,2024.1.5,None,2024-11-20 12h13.39.314288 +0530,
27,50,21,10,6,76,2,186.3507134000538,,186.33707700006198,186.3507134000538,187.35084149998147,187.35084149998147,187.35084149998147,187.86961309995968,l,0.5161258999723941,None,4,001,2024-11-20_12h13.27.676,delay_discounting,2024.1.5,None,2024-11-20 12h13.39.314288 +0530,
40,55,62,11,0,77,3,187.88397500000428,,187.87105249997694,187.88397500000428,188.8840513000032,188.8840513000032,188.8840513000032,189.50285749998875,l,0.606242400011979,None,4,001,2024-11-20_12h13.27.676,delay_discounting,2024.1.5,None,2024-11-20 12h13.39.314288 +0530,
67,75,119,11,1,78,5,189.5174767000135,,189.50413580005988,189.5174767000135,190.5175330999773,190.5175330999773,190.5175330999773,191.01945899997372,t,0.4862009999342263,None,4,001,2024-11-20_12h13.27.676,delay_discounting,2024.1.5,None,2024-11-20 12h13.39.314288 +0530,
11,30,7,11,2,79,0,191.03394480003044,,191.02112869999837,191.03394480003044,192.03401719999965,192.03401719999965,192.03401719999965,192.68574019998778,l,0.6353590999497101,None,4,001,2024-11-20_12h13.27.676,delay_discounting,2024.1.5,None,2024-11-20 12h13.39.314288 +0530,
49,60,89,11,3,80,4,192.70077330002096,,192.68685790000018,192.70077330002096,193.7008248999482,193.7008248999482,193.7008248999482,194.25277699995786,t,0.5437624000478536,None,4,001,2024-11-20_12h13.27.676,delay_discounting,2024.1.5,None,2024-11-20 12h13.39.314288 +0530,
27,50,21,11,4,81,2,194.26734240003861,,194.25382670003455,194.26734240003861,195.26739349996205,195.26739349996205,195.26739349996205,195.78574179997668,l,0.50267580000218,None,4,001,2024-11-20_12h13.27.676,delay_discounting,2024.1.5,None,2024-11-20 12h13.39.314288 +0530,
15,35,43,11,5,82,1,195.80066880001687,,195.78683250001632,195.80066880001687,196.80079150001984,196.80079150001984,196.80079150001984,197.3194511999609,t,0.5069625000469387,None,4,001,2024-11-20_12h13.27.676,delay_discounting,2024.1.5,None,2024-11-20 12h13.39.314288 +0530,
78,80,162,11,6,83,6,197.3338425999973,,197.3207156000426,197.3338425999973,198.33397619996686,198.33397619996686,198.33397619996686,198.66856530006044,t,0.31984160002321005,None,4,001,2024-11-20_12h13.27.676,delay_discounting,2024.1.5,None,2024-11-20 12h13.39.314288 +0530,
67,75,119,12,0,84,5,198.6839089000132,,198.66944770002738,198.6839089000132,199.683726200019,199.683726200019,199.683726200019,199.97009570000228,t,0.2736155000748113,None,4,001,2024-11-20_12h13.27.676,delay_discounting,2024.1.5,None,2024-11-20 12h13.39.314288 +0530,
49,60,89,12,1,85,4,199.9864425000269,,199.97166320006363,199.9864425000269,200.98411429999396,200.98411429999396,201.00048309995327,201.41983360005543,t,0.43320830003358424,None,4,001,2024-11-20_12h13.27.676,delay_discounting,2024.1.5,None,2024-11-20 12h13.39.314288 +0530,
40,55,62,12,2,86,3,201.4341191999847,,201.42179130006116,201.4341191999847,202.4339473999571,202.4339473999571,202.4339473999571,202.7192928000586,t,0.27287880005314946,None,4,001,2024-11-20_12h13.27.676,delay_discounting,2024.1.5,None,2024-11-20 12h13.39.314288 +0530,
15,35,43,12,3,87,1,202.73370630003046,,202.7206862999592,202.73370630003046,203.734000400058,203.734000400058,203.734000400058,204.05263259995263,t,0.3042896999977529,None,4,001,2024-11-20_12h13.27.676,delay_discounting,2024.1.5,None,2024-11-20 12h13.39.314288 +0530,
11,30,7,12,4,88,0,204.06710420001764,,204.05389540002216,204.06710420001764,205.0673117999686,205.0673117999686,205.0673117999686,205.56902289995924,l,0.49182110000401735,None,4,001,2024-11-20_12h13.27.676,delay_discounting,2024.1.5,None,2024-11-20 12h13.39.314288 +0530,
27,50,21,12,5,89,2,205.5835633999668,,205.57014500000514,205.5835633999668,206.58367139997426,206.58367139997426,206.58367139997426,207.25232239998877,l,0.6543716000160202,None,4,001,2024-11-20_12h13.27.676,delay_discounting,2024.1.5,None,2024-11-20 12h13.39.314288 +0530,
78,80,162,12,6,90,6,207.2671229999978,,207.2538121000398,207.2671229999978,208.2672748999903,208.2672748999903,208.2672748999903,209.00193370005582,t,0.7201082999818027,None,4,001,2024-11-20_12h13.27.676,delay_discounting,2024.1.5,None,2024-11-20 12h13.39.314288 +0530,
40,55,62,13,0,91,3,209.01698910002597,,209.00305930001196,209.01698910002597,210.0173198999837,210.0173198999837,210.0173198999837,210.6355479999911,t,0.6066932999528944,None,4,001,2024-11-20_12h13.27.676,delay_discounting,2024.1.5,None,2024-11-20 12h13.39.314288 +0530,
78,80,162,13,1,92,6,210.650491300039,,210.63683730002958,210.650491300039,211.65050980006345,211.65050980006345,211.65050980006345,212.25230379996356,t,0.5927542999852449,None,4,001,2024-11-20_12h13.27.676,delay_discounting,2024.1.5,None,2024-11-20 12h13.39.314288 +0530,
11,30,7,13,2,93,0,212.26720030000433,,212.25337849999778,212.26720030000433,213.26715610001702,213.26715610001702,213.26715610001702,214.0352995999856,l,0.7578240999719128,None,4,001,2024-11-20_12h13.27.676,delay_discounting,2024.1.5,None,2024-11-20 12h13.39.314288 +0530,
49,60,89,13,3,94,4,214.05031129997224,,214.03659559995867,214.05031129997224,215.05045690003317,215.05045690003317,215.05045690003317,216.20216780004557,t,1.1349170999601483,None,4,001,2024-11-20_12h13.27.676,delay_discounting,2024.1.5,None,2024-11-20 12h13.39.314288 +0530,
15,35,43,13,4,95,1,216.21702990005724,,216.20342090004124,216.21702990005724,217.21706090006046,217.21706090006046,217.21706090006046,217.80231689999346,t,0.5759326000697911,None,4,001,2024-11-20_12h13.27.676,delay_discounting,2024.1.5,None,2024-11-20 12h13.39.314288 +0530,
27,50,21,13,5,96,2,217.8169214000227,,217.80343410000205,217.8169214000227,218.81714970001485,218.81714970001485,218.81714970001485,219.41904770000838,l,0.5971404999727383,None,4,001,2024-11-20_12h13.27.676,delay_discounting,2024.1.5,None,2024-11-20 12h13.39.314288 +0530,
67,75,119,13,6,97,5,219.43355590000283,,219.42027100000996,219.43355590000283,220.43372680002358,220.43372680002358,220.43372680002358,221.1353743999498,t,0.6844385999720544,None,4,001,2024-11-20_12h13.27.676,delay_discounting,2024.1.5,None,2024-11-20 12h13.39.314288 +0530,
40,55,62,14,0,98,3,221.15023210004438,,221.13686289999168,221.15023210004438,222.15038939996157,222.15038939996157,222.15038939996157,222.68524250003975,t,0.5223744000541046,None,4,001,2024-11-20_12h13.27.676,delay_discounting,2024.1.5,None,2024-11-20 12h13.39.314288 +0530,
15,35,43,14,1,99,1,222.700317800045,,222.68636709998827,222.700317800045,223.70035249996,223.70035249996,223.70035249996,224.16876879998017,t,0.4647874999791384,None,4,001,2024-11-20_12h13.27.676,delay_discounting,2024.1.5,None,2024-11-20 12h13.39.314288 +0530,
67,75,119,14,2,100,5,224.18355249997694,,224.1699211000232,224.18355249997694,225.1835965999635,225.1835965999635,225.1835965999635,226.0359406999778,t,0.8486416999949142,None,4,001,2024-11-20_12h13.27.676,delay_discounting,2024.1.5,None,2024-11-20 12h13.39.314288 +0530,
78,80,162,14,3,101,6,226.05019820004236,,226.037191899959,226.05019820004236,227.05002620001324,227.05002620001324,227.05002620001324,227.5855529999826,t,0.5256439000368118,None,4,001,2024-11-20_12h13.27.676,delay_discounting,2024.1.5,None,2024-11-20 12h13.39.314288 +0530,
49,60,89,14,4,102,4,227.60013859998435,,227.58662840002216,227.60013859998435,228.60019939998165,228.60019939998165,228.60019939998165,229.0367344999686,t,0.43372490000911057,None,4,001,2024-11-20_12h13.27.676,delay_discounting,2024.1.5,None,2024-11-20 12h13.39.314288 +0530,
27,50,21,14,5,103,2,229.05148360005114,,229.03820970002562,229.05148360005114,230.05015010002535,230.05015010002535,230.06664179998916,231.26861629995983,l,1.2020018000621349,None,4,001,2024-11-20_12h13.27.676,delay_discounting,2024.1.5,None,2024-11-20 12h13.39.314288 +0530,
11,30,7,14,6,104,0,231.28347210003994,,231.2697068999987,231.28347210003994,232.2835651000496,232.2835651000496,232.2835651000496,232.96884620003402,t,0.6749462999869138,None,4,001,2024-11-20_12h13.27.676,delay_discounting,2024.1.5,None,2024-11-20 12h13.39.314288 +0530,
